"Time (s)";"Acceleration x (m/s^2)";"Acceleration y (m/s^2)";"Acceleration z (m/s^2)";"Absolute acceleration (m/s^2)"
0.000000000E0;1.517923832E0;5.540182590E0;7.331045628E0;9.313535628E0
1.177504600E-2;1.225831270E0;5.257667065E0;6.995857239E0;8.836726983E0
2.760567100E-2;1.154005170E0;5.257667065E0;6.713341713E0;8.604867683E0
4.050048300E-2;1.240196466E0;5.114014626E0;6.900089264E0;8.677699275E0
5.197688900E-2;1.292868972E0;4.759673119E0;6.895300865E0;8.477686736E0
6.267109200E-2;1.211466074E0;4.659116745E0;6.684611320E0;8.237660311E0
7.311619400E-2;1.450886250E0;3.907337189E0;5.990292549E0;7.297668096E0
8.330024500E-2;1.685518026E0;3.519476414E0;6.885724068E0;7.914599243E0
9.343227000E-2;2.087743998E0;4.716577530E0;8.322244644E0;9.791043586E0
1.033977830E-1;2.499546528E0;5.573701382E0;8.882488251E0;1.078018912E1
1.134635390E-1;2.647987127E0;5.554547787E0;8.149862289E0;1.021200726E1
1.234389170E-1;2.643198729E0;5.372588634E0;7.685387611E0;9.742504344E0
1.335086060E-1;2.303221941E0;5.434837818E0;7.987056732E0;9.931534054E0
1.434564510E-1;1.556231141E0;6.114790916E0;7.747636795E0;9.991916694E0
1.534918730E-1;1.086967587E0;6.430825710E0;7.354987621E0;9.830201461E0
1.635160840E-1;1.192312479E0;6.382941723E0;7.101202011E0;9.622402199E0
1.735186900E-1;1.345541358E0;6.646304131E0;6.847416878E0;9.636957925E0
1.835609930E-1;1.340752959E0;7.278373241E0;6.387730122E0;9.776268800E0
1.935481440E-1;1.264138460E0;7.920019150E0;5.975927353E0;1.000182269E1
2.035442200E-1;1.460463047E0;7.680599213E0;5.779603004E0;9.722570003E0
2.135282580E-1;1.896207690E0;7.101202011E0;6.426037312E0;9.763023565E0
2.235722770E-1;1.661576033E0;7.867346764E0;6.756437302E0;1.050263896E1
2.335447860E-1;9.337386489E-1;7.627926826E0;6.665457726E0;1.017278046E1
2.439780410E-1;1.632845521E0;6.679822922E0;7.570465565E0;1.022732456E1
2.537146680E-1;3.064578176E-1;7.268796444E0;7.388506413E0;1.036915354E1
2.637224820E-1;-5.075707436E-1;8.485051155E0;7.316680431E0;1.121550417E1
2.736113890E-1;-4.165911078E-1;9.050082207E0;6.962338448E0;1.142592197E1
2.834763420E-1;1.675941199E-1;8.240841866E0;6.358999729E0;1.041040057E1
2.934778190E-1;1.096544385E0;7.565677166E0;5.707777023E0;9.540471640E0
3.034305570E-1;1.833958507E0;7.082048416E0;5.559336185E0;9.188309550E0
3.134574260E-1;2.149993181E0;6.660669327E0;6.215347767E0;9.360423838E0
3.234513610E-1;1.316810966E0;6.665457726E0;7.417236805E0;1.005871362E1
3.333908280E-1;2.298433632E-1;6.991068840E0;7.848193169E0;1.051294476E1
3.434245620E-1;4.788403399E-3;7.235277653E0;7.680599213E0;1.055181832E1
3.534829290E-1;1.225831270E0;6.229712963E0;7.675810814E0;9.961428490E0
3.634561120E-1;1.738190413E0;5.750872612E0;7.273584843E0;9.433921675E0
3.734632040E-1;1.096544385E0;7.158663273E0;6.885724068E0;9.993100889E0
3.834222500E-1;1.005564705E-1;7.292738438E0;7.671022415E0;1.058483493E1
3.934307730E-1;1.651999116E0;6.837840080E0;7.378929615E0;1.019479084E1
4.034940340E-1;1.838746905E0;8.336610794E0;6.205770969E0;1.055422489E1
4.134731650E-1;3.031059265E0;6.957550049E0;6.138733387E0;9.761089619E0
4.234347300E-1;3.069366693E0;7.465120792E0;5.176264286E0;9.588678340E0
4.333950130E-1;2.600103140E0;7.929595947E0;4.893748283E0;9.674078793E0
4.434221540E-1;2.451662540E0;6.631938934E0;4.568136692E0;8.417905682E0
4.534277250E-1;6.655880809E-1;7.560888767E0;3.074155092E0;8.189046097E0
4.633940100E-1;3.399766386E-1;8.082824707E0;2.250549555E0;8.397178851E0
4.734576530E-1;1.766920805E0;6.478709698E0;3.596091032E0;7.617582240E0
4.834999740E-1;2.461239338E0;9.935936928E0;5.363011837E0;1.155605632E1
4.935851350E-1;4.477157116E0;1.038604736E1;8.312667847E0;1.403621610E1
5.034497150E-1;5.023035049E0;8.652645111E0;1.015620327E1;1.425649373E1
5.133980050E-1;5.248090267E0;6.449979305E0;9.117119789E0;1.233963361E1
5.234431500E-1;4.529829502E0;6.895300865E0;7.603984833E0;1.121985359E1
5.334472230E-1;3.213018656E0;9.485827446E0;6.133944988E0;1.174434725E1
5.433832590E-1;2.245761156E0;7.225700855E0;5.583278179E0;9.403573323E0
5.533707770E-1;9.959878922E-1;6.607996464E0;3.610456228E0;7.595591045E0
5.633780360E-1;1.182735682E0;5.750872612E0;8.140286058E-2;5.871799206E0
5.734116660E-1;9.289502501E-1;6.311115742E0;-4.376600742E0;7.736133694E0
5.833819810E-1;-3.256114423E-1;7.738059998E0;-1.159272480E1;1.394183860E1
5.934111380E-1;-2.394201756E-1;8.877699852E0;-1.534683323E1;1.773122012E1
6.034327170E-1;7.900865674E-1;9.787496567E0;-2.062844276E1;2.284626833E1
6.135285060E-1;1.024718285E0;9.715670586E0;-1.753513336E1;2.007299690E1
6.234524010E-1;1.570596337E0;9.447520256E0;-4.553771496E0;1.060468041E1
6.334008480E-1;1.312022567E0;9.385271072E0;3.763684988E0;1.019657006E1
6.433735720E-1;1.747767210E0;8.978256226E0;6.392518520E0;1.115921449E1
6.534814340E-1;2.183511972E0;8.920795441E0;6.560112476E0;1.128642510E1
6.635493650E-1;1.910573006E0;8.781931877E0;5.324704647E0;1.044629582E1
6.734603300E-1;1.800439715E0;8.695740700E0;2.777273893E0;9.304339835E0
6.834773130E-1;1.910573006E0;9.150638580E0;-6.224924326E-1;9.368669728E0
6.934463040E-1;2.082955360E0;9.567230225E0;-3.873818398E0;1.052981796E1
7.034023000E-1;2.025494576E0;9.519346237E0;-4.654327869E0;1.078811146E1
7.138952980E-1;1.786074519E0;9.294290543E0;-1.963245392E0;9.665828022E0
7.236337970E-1;1.637633920E0;9.026140213E0;7.230489254E-1;9.201948258E0
7.336010460E-1;1.398213744E0;9.279925346E0;1.426944256E0;9.492533172E0
7.434756710E-1;1.537077546E0;8.690952301E0;1.192312479E0;8.906001815E0
7.534789830E-1;1.556231141E0;8.925583839E0;7.086837292E-1;9.087911469E0
7.634106390E-1;1.450886250E0;9.222464561E0;6.033388376E-1;9.355369648E0
7.735089670E-1;1.393425345E0;9.519346237E0;6.177040339E-1;9.640598801E0
7.834346310E-1;1.551442742E0;9.677363396E0;7.565677166E-1;9.830093163E0
7.934639630E-1;1.690306425E0;9.797073364E0;1.034295082E0;9.995476408E0
8.033936290E-1;1.719036818E0;9.351752281E0;7.948749661E-1;9.541602828E0
8.135159620E-1;1.671152830E0;8.690952301E0;2.681505978E-1;8.854225456E0
8.234351290E-1;1.403002143E0;8.149862289E0;-1.053448766E-1;8.270415219E0
8.334387120E-1;1.067813993E0;7.666234016E0;-1.244984865E-1;7.741244770E0
8.433730040E-1;6.416460276E-1;7.484274387E0;3.016694188E-1;7.517784060E0
8.535396500E-1;3.208230138E-1;7.302315235E0;9.241618514E-1;7.367551176E0
8.635614730E-1;7.757213712E-1;7.082048416E0;9.816226959E-1;7.191713046E0
8.735253840E-1;1.685518026E0;7.029376030E0;2.442085743E-1;7.232754400E0
8.835278400E-1;2.178723574E0;7.101202011E0;-5.171475410E-1;7.445894707E0
8.934580680E-1;2.121262789E0;6.924031258E0;-1.082179189E0;7.322095088E0
9.034206820E-1;1.656787634E0;6.770802498E0;-8.762778044E-1;7.025423441E0
9.135364890E-1;1.015141487E0;6.713341713E0;-4.261679053E-1;6.803020526E0
9.234553920E-1;8.667010069E-1;7.000645638E0;1.244984865E-1;7.055190277E0
9.335788440E-1;6.607996821E-1;7.455543995E0;5.219359994E-1;7.502946732E0
9.435310700E-1;1.728613615E0;7.484274387E0;-1.422155857E0;7.811849680E0
9.535666830E-1;1.833958507E0;7.469909191E0;-2.360682964E0;8.045854286E0
9.635454890E-1;1.225831270E0;7.680599213E0;-1.120486379E0;7.858101316E0
9.734628920E-1;1.340752989E-1;8.221688271E0;2.681505978E-1;8.227152542E0
9.833940940E-1;6.512228847E-1;8.058882713E0;2.777273953E-1;8.089920540E0
9.934421950E-1;8.762778044E-1;8.777143478E0;-7.661445439E-2;8.821109919E0
1.003539245E0;1.197100878E0;8.662221909E0;-6.224924326E-2;8.744770659E0
1.013655270E0;1.690306425E0;8.480262756E0;3.830722719E-2;8.647164834E0
1.023569283E0;2.609679937E0;8.561665535E0;-7.134721279E-1;8.978952533E0
1.033470289E0;3.524264812E0;8.987833023E0;-1.881842494E0;9.835797685E0
1.043502292E0;4.165910721E0;9.926360130E0;-2.470816135E0;1.104501562E1
1.053608294E0;4.477157116E0;1.056800652E1;-2.504334927E0;1.174731420E1
1.063500795E0;3.916913986E0;1.068292809E1;-2.226607561E0;1.159417737E1
1.073455545E0;3.327940464E0;1.095107841E1;-1.335964561E0;1.152328545E1
1.083515920E0;2.284068346E0;1.069729328E1;-8.379706144E-1;1.097047157E1
1.093518108E0;2.054224968E0;1.080742645E1;-1.723825186E-1;1.100227351E1
1.103670702E0;1.359906554E0;1.098459721E1;-3.543418646E-1;1.107412659E1
1.113813999E0;2.322375536E0;1.132936287E1;-1.235408068E0;1.163074049E1
1.123615147E0;3.280056238E0;1.172201157E1;-1.709460020E0;1.229172802E1
1.133562721E0;3.462015629E0;1.180820274E1;-2.499546528E0;1.255654957E1
1.143471008E0;3.002328873E0;1.179383755E1;-2.810792685E0;1.249036181E1
1.153446152E0;3.433285236E0;1.196143150E1;-2.566584110E0;1.270632304E1
1.163417224E0;2.944868088E0;1.239717674E1;-2.207453966E0;1.293194078E1
1.173574260E0;3.557783842E0;1.262701988E1;-1.340752959E0;1.318700404E1
1.183471278E0;3.471592426E0;1.296699619E1;-8.379706144E-1;1.344980070E1
1.193503787E0;3.639186621E0;1.378581333E1;-7.661445141E-1;1.427863109E1
1.203423041E0;2.676717520E0;1.448013210E1;-7.565677166E-1;1.474487833E1
1.213427168E0;3.227383852E0;1.563413715E1;-1.259350061E0;1.601337609E1
1.223427232E0;4.041412354E0;1.676420021E1;-1.584961534E0;1.731714542E1
1.233679264E0;4.276044369E0;1.777455330E1;-1.905784607E0;1.838073218E1
1.243666280E0;3.725377798E0;1.883279037E1;-2.269703150E0;1.933142482E1
1.253577288E0;4.036623955E0;2.004904556E1;-2.106897593E0;2.055961037E1
1.263475292E0;4.802768707E0;2.151429558E1;-1.312022567E0;2.208286450E1
1.273629794E0;4.079719543E0;2.300349045E1;-2.260126352E0;2.347153287E1
1.283719045E0;4.333505154E0;2.370259666E1;-2.858676910E0;2.426446763E1
1.293554170E0;7.201758862E0;2.356852150E1;-5.774814606E0;2.531183557E1
1.303664733E0;6.330269337E0;2.357809830E1;-6.727706909E0;2.532313309E1
1.313831014E0;7.340622425E0;2.426284027E1;-7.254431248E0;2.636658735E1
1.323689155E0;7.862558365E0;2.418143654E1;-6.924031258E0;2.635344201E1
1.333539225E0;8.140285492E0;2.252943802E1;-6.019022942E0;2.469956401E1
1.343442760E0;6.200982571E0;2.125572205E1;-9.241618156E0;2.399302838E1
1.353524528E0;3.797203779E0;2.130360603E1;-8.954314232E0;2.341884134E1
1.363473412E0;1.642422318E0;2.048478889E1;-5.923254967E0;2.138712408E1
1.373480354E0;-1.240196466E0;1.897644234E1;2.106897593E0;1.913328170E1
1.383601325E0;-2.600103140E0;1.594059467E1;9.567230225E0;1.877218658E1
1.393529310E0;-3.303998232E0;1.260786629E1;6.229712963E0;1.444589977E1
1.403512803E0;2.298433542E0;5.913678169E0;-9.557653427E0;1.147184054E1
1.413476049E0;2.576161146E0;-1.580173075E-1;8.145073891E0;8.544226378E0
1.423442172E0;1.541865945E0;-3.557783842E0;1.210029507E1;1.270638883E1
1.433489734E0;-5.027823448E-1;-5.363011837E0;1.819114494E1;1.897188553E1
1.443460515E0;-5.123591423E-1;-7.690176010E0;1.543781281E1;1.725477856E1
1.453585405E0;-1.436521020E-2;-5.439626217E0;2.394201756E0;5.943226547E0
1.463479350E0;7.010222435E0;-5.257667065E0;-1.723825186E-1;8.764473589E0
1.473502323E0;3.294421434E0;-1.948880196E0;3.126827478E0;4.942509149E0
1.483434309E0;2.221819162E0;5.171475887E0;2.705447912E0;6.245005336E0
1.493458802E0;4.031835556E0;7.139509678E0;-2.059013397E-1;8.201871235E0
1.503402049E0;5.027823448E-1;5.128379822E0;1.436521020E-2;5.152987099E0
1.513449172E0;-2.667140722E0;3.404554844E0;9.097966552E-1;4.419543333E0
1.523551234E0;-2.025494576E0;2.255337954E0;1.005564705E-1;3.033032998E0
1.533982265E0;-1.067813993E0;8.667010069E-1;-4.932055473E-1;1.461043829E0
1.543720780E0;-6.464344859E-1;-7.852981687E-1;-1.158793569E0;1.541873306E0
1.553539538E0;-1.800439715E0;-2.590526342E0;-1.407790542E0;3.454603321E0
1.563514917E0;-2.461239338E0;-3.620033026E0;-1.963245392E0;4.797569244E0
1.573476106E0;-1.288080573E0;-3.112462282E0;-2.600103140E0;4.255244923E0
1.583421201E0;1.436521020E-2;-2.193088770E0;-2.284068346E0;3.166514317E0
1.593464248E0;-1.915361285E-1;-1.211466074E0;-1.905784607E0;2.266351938E0
1.603492772E0;-7.900865674E-1;-4.453215301E-1;-1.455674648E0;1.715090881E0
1.613572534E0;-1.216254473E0;7.661445439E-2;-1.225831270E0;1.728527414E0
1.623561915E0;-7.805097699E-1;2.202665508E-1;-1.561019540E0;1.759117636E0
1.633461605E0;-4.118026793E-1;4.357447028E-1;-1.719036818E0;1.820588496E0
1.643452450E0;-1.915361285E-1;5.410895944E-1;-1.412579060E0;1.524743794E0
1.653670373E0;-1.915361360E-2;7.709329724E-1;-6.655880809E-1;1.018681502E0
1.663541834E0;1.532289088E-1;1.024718285E0;1.915361285E-1;1.053666337E0
1.673658565E0;7.230489254E-1;9.385270476E-1;6.943184733E-1;1.373211896E0
1.683627430E0;5.363011956E-1;6.272808313E-1;6.224924326E-1;1.033729676E0
1.693613863E0;3.112462163E-1;2.346317619E-1;4.836287498E-1;6.211465516E-1
1.703520079E0;3.495534360E-1;3.351882473E-2;6.560112834E-1;7.440846190E-1
1.713470687E0;4.740519226E-1;-2.489969730E-1;4.022258818E-1;6.697091741E-1
1.723400491E0;4.932055473E-1;-3.160346150E-1;-3.064578176E-1;6.610945347E-1
1.733453893E0;6.224924326E-1;-2.681505978E-1;-5.793967843E-1;8.916850371E-1
1.743446594E0;5.410895944E-1;-2.202665508E-1;-6.368576288E-1;8.642238957E-1
1.753450445E0;5.458779931E-1;5.458779931E-1;3.830722719E-2;7.729379085E-1
1.763417370E0;2.681505978E-1;1.307234168E0;8.906430602E-1;1.604372455E0
1.773411833E0;4.788403213E-2;1.872265697E0;1.302445769E0;2.281235784E0
1.783402564E0;6.224924326E-2;2.389413357E0;1.628057212E-1;2.395762271E0
1.793407430E0;3.974374831E-1;3.576937437E0;-3.160346150E-1;3.612798896E0
1.803549363E0;-3.112462163E-1;4.841075897E0;1.833958507E0;5.186163693E0
1.813459329E0;2.087743998E0;7.862558365E0;3.878606856E-1;8.144257790E0
1.823439312E0;4.903325081E0;1.368046856E1;3.203441858E0;1.488152736E1
1.833388804E0;6.914454460E0;2.005383301E1;1.752555609E0;2.128467406E1
1.843363050E0;3.778050184E0;2.684379005E1;-5.348646641E0;2.763097444E1
1.853436673E0;5.597643375E0;3.087083626E1;-5.827486992E0;3.191084059E1
1.863542984E0;6.052541733E0;3.239833832E1;-7.048529625E0;3.370411484E1
1.873456140E0;1.049139214E1;3.782838821E1;3.998316765E0;3.945938166E1
1.883421718E0;1.268926907E1;3.375824356E1;5.085284233E0;3.642110204E1
1.893457507E0;7.996633649E-1;2.847184753E1;-5.343858242E0;2.898003424E1
1.903411901E0;-1.248336792E1;2.895068741E1;1.023760605E1;3.314793136E1
1.913409598E0;-2.236184359E0;2.161964226E1;-2.035071373E0;2.183004735E1
1.923372447E0;3.945644379E0;1.706587029E1;-2.157175636E1;2.778763593E1
1.933458371E0;3.931279182E0;1.578736591E1;-9.643844604E0;1.891294840E1
1.943446333E0;2.327163935E0;1.492066479E1;-7.278373241E-1;1.511858713E1
1.953527814E0;2.695871115E0;1.298614979E1;-1.728613615E0;1.337519766E1
1.963438555E0;1.795651317E0;1.241633034E1;-4.419696331E0;1.330125326E1
1.973404425E0;1.187524080E0;1.250730991E1;-2.183511972E0;1.275189160E1
1.983385860E0;-1.915361360E-2;1.262701988E1;7.661445439E-2;1.262726684E1
1.993443578E0;-4.836287498E-1;1.273715305E1;8.906430602E-1;1.277741013E1
2.003395437E0;-9.576806799E-3;1.334528065E1;4.788403213E-2;1.334536999E1
2.013395866E0;1.958456993E0;1.360385418E1;-1.527500629E0;1.382872592E1
2.023418581E0;2.715024710E0;1.319683933E1;-2.001552582E0;1.362109174E1
2.033410938E0;2.078166962E0;1.211466026E1;-1.383848548E0;1.236926869E1
2.043406617E0;8.475474119E-1;1.122401714E1;-2.346317619E-1;1.125841683E1
2.053449456E0;9.672574997E-1;1.029506683E1;-2.011129409E-1;1.034236117E1
2.063445376E0;1.307234168E0;9.088389397E0;-8.283938169E-1;9.219214680E0
2.073412836E0;1.637633920E0;7.805097580E0;-1.177947283E0;8.061572606E0
2.083397066E0;7.852981687E-1;6.842628479E0;-7.469909191E-1;6.927932819E0
2.093402181E0;8.236053586E-1;6.186617374E0;-3.543418646E-1;6.251249354E0
2.103634738E0;5.793967843E-1;5.880159378E0;-1.771709323E-1;5.911291270E0
2.113495517E0;4.165911078E-1;5.760449409E0;-6.081272364E-1;5.807421483E0
2.123417906E0;6.177040339E-1;5.803544998E0;-8.523358107E-1;5.898234410E0
2.133381601E0;8.427590132E-1;6.191405773E0;-9.864110947E-1;6.325879785E0
2.143462948E0;9.050082564E-1;6.670246124E0;-9.050082564E-1;6.791926328E0
2.153445122E0;1.000776291E0;7.077260017E0;-9.816226959E-1;7.214758877E0
2.163388709E0;6.943184733E-1;7.292738438E0;-1.144428372E0;7.414568656E0
2.173380002E0;3.399766386E-1;7.445967197E0;-1.130063176E0;7.538902732E0
2.183392149E0;-4.309562966E-2;7.915230751E0;-5.027823448E-1;7.931300345E0
2.193450722E0;-1.628057212E-1;8.753201485E0;2.777273953E-1;8.759119501E0
2.203385509E0;1.197100878E-1;9.385271072E0;1.867477298E-1;9.387892113E0
2.213365402E0;5.937620401E-1;9.753977776E0;-6.320692301E-1;9.792453590E0
2.223436349E0;1.115697980E0;9.835380554E0;-1.517923832E0;1.001416923E1
2.233484822E0;1.340752959E0;9.806650162E0;-1.848323703E0;1.006897743E1
2.243439059E0;1.297657371E0;9.897629738E0;-1.661576033E0;1.011967509E1
2.253412177E0;1.168370485E0;9.974244118E0;-1.450886250E0;1.014670913E1
2.263386236E0;9.145850539E-1;9.959878922E0;-1.422155857E0;1.010238493E1
2.273390266E0;1.024718285E0;9.911994934E0;-1.436521053E0;1.006783412E1
2.283386781E0;1.063025594E0;9.840168953E0;-1.364694953E0;9.991063044E0
2.293396038E0;9.768342972E-1;9.662998199E0;-1.264138460E0;9.794170996E0
2.303412167E0;8.523358107E-1;9.533711433E0;-1.278503656E0;9.656743842E0
2.313454231E0;8.044517636E-1;9.543288231E0;-1.268926859E0;9.660831655E0
2.323391263E0;7.086837292E-1;9.528923035E0;-1.182735682E0;9.628160287E0
2.333419279E0;7.278373241E-1;9.490615845E0;-1.106121182E0;9.582538304E0
2.343477787E0;9.002198577E-1;9.500192642E0;-1.053448796E0;9.600719265E0
2.353445541E0;8.427590132E-1;9.495404243E0;-9.672574997E-1;9.581676866E0
2.363420418E0;5.506663918E-1;9.481039047E0;-7.086837292E-1;9.523422049E0
2.373431857E0;4.357447028E-1;9.500192642E0;-3.830722570E-1;9.517892521E0
2.383384576E0;4.884171486E-1;9.433155060E0;-1.963245422E-1;9.447830916E0
2.393402436E0;1.484405100E-1;9.370905876E0;1.292868853E-1;9.372973201E0
2.403372366E0;4.788403399E-3;9.390059471E0;7.757213712E-1;9.422047731E0
2.413504831E0;3.591302633E-1;9.452308655E0;1.130063176E0;9.526392614E0
2.423441063E0;7.996633649E-1;9.447520256E0;8.906430602E-1;9.523042872E0
2.433412679E0;9.337386489E-1;9.423578262E0;-2.825157940E-1;9.473938479E0
2.443395987E0;8.906430602E-1;9.246406555E0;-1.005564690E0;9.343470425E0
2.453360141E0;8.571242094E-1;9.155426979E0;-1.503558636E0;9.317574451E0
2.463366718E0;9.289502501E-1;9.198522568E0;-1.685518026E0;9.397698496E0
2.473465007E0;1.039083481E0;9.241618156E0;-1.695094824E0;9.453070776E0
2.483478151E0;1.034295082E0;9.184157372E0;-1.618480325E0;9.382856255E0
2.493554223E0;9.528923035E-1;9.193734169E0;-1.417367458E0;9.351025731E0
2.503445259E0;6.320692301E-1;9.332598686E0;-9.624691010E-1;9.403364107E0
2.513411277E0;2.346317619E-1;9.461885452E0;-5.171475410E-1;9.478911855E0
2.523410286E0;-2.633621991E-1;9.710882187E0;-1.580173075E-1;9.715737850E0
2.533429291E0;-7.182605267E-1;1.009395409E1;1.580173075E-1;1.012071029E1
2.543432293E0;-1.110909581E0;1.066856289E1;2.202665508E-1;1.072850743E1
2.553405294E0;-1.570596337E0;1.027591324E1;5.937620401E-1;1.041219089E1
2.563384795E0;-1.604115129E0;9.825803757E0;3.974374831E-1;9.963812592E0
2.573413545E0;-1.594538331E0;9.500192642E0;1.244984865E-1;9.633883568E0
2.583384420E0;-1.565807939E0;9.289502144E0;-4.788403399E-3;9.420542846E0
2.593621858E0;-1.517923832E0;9.165003777E0;1.580173075E-1;9.291197794E0
2.603496577E0;-1.489193439E0;9.107542992E0;3.351882473E-2;9.228551347E0
2.613423936E0;-1.551442742E0;9.121908188E0;4.309562966E-2;9.253001719E0
2.623389116E0;-1.647210717E0;9.227252960E0;2.873041928E-1;9.377528674E0
2.633405706E0;-1.570596337E0;9.332598686E0;3.734954596E-1;9.471202139E0
2.643417501E0;-1.335964561E0;9.179368973E0;2.537853718E-1;9.279548645E0
2.653389898E0;-1.446097851E0;9.145850182E0;-9.576806426E-2;9.259964690E0
2.663371097E0;-4.692635238E-1;8.858546257E0;-9.337386489E-1;8.919972977E0
2.673403696E0;1.503558636E0;8.537723541E0;-1.877054095E0;8.869991201E0
2.683852496E0;4.094084740E0;8.030152321E0;-2.106897533E-1;9.016056029E0
2.693658896E0;3.658340216E0;7.704541206E0;-1.101332784E0;8.599787337E0
2.703528596E0;6.526593685E0;7.455543995E0;1.915361360E-2;9.908679440E0
2.713457446E0;7.666234016E0;7.350199223E0;6.081272364E-1;1.063796932E1
2.723468871E0;8.954314232E0;7.570465565E0;1.312022567E0;1.179885992E1
2.733565083E0;1.006043530E1;7.805097580E0;1.853112102E0;1.286724256E1
2.743454689E0;1.007480049E1;8.020575523E0;2.408566952E0;1.310085613E1
2.753386992E0;7.929595947E0;8.001421928E0;5.286397457E0;1.244376321E1
2.763352644E0;3.754108191E0;8.633491516E0;8.796297073E0;1.288430620E1
2.773349970E0;3.667917013E0;9.730035782E0;9.562441826E0;1.412683635E1
2.783372633E0;3.409343243E0;9.816226959E0;6.981492043E0;1.251891226E1
2.793479464E0;3.830722809E0;8.896853447E0;3.624821424E0;1.034252236E1
2.803401380E0;3.773261786E0;8.580819130E0;1.139639974E0;9.442814237E0
2.813367338E0;2.427720547E0;8.647856712E0;-3.399766386E-1;8.988594823E0
2.823435317E0;2.025494576E0;8.374917984E0;-1.738190413E0;8.789947976E0
2.833397806E0;1.264138460E0;7.608773232E0;-4.850652695E0;9.111548041E0
2.843781551E0;1.896207690E0;7.302315235E0;-5.056553841E0;9.082298615E0
2.853615423E0;3.126827478E0;7.824251175E0;-2.523488522E0;8.795677964E0
2.863487859E0;3.950432777E0;7.905653954E0;1.101332754E-1;8.838405563E0
2.873494577E0;3.859453201E0;7.972691536E0;1.862688899E0;9.051452882E0
2.883434936E0;3.648763418E0;7.943961143E0;2.724601507E0;9.156606713E0
2.893514616E0;3.969586372E0;7.805097580E0;3.117250681E0;9.294859655E0
2.903474956E0;4.707000732E0;7.656657219E0;3.433285236E0;9.621211108E0
2.913436126E0;5.430049419E0;7.728483200E0;3.658340216E0;1.012908399E1
2.923379711E0;5.731719017E0;7.838616371E0;3.912125587E0;1.046906090E1
2.933392003E0;5.468356609E0;7.958326340E0;4.534617901E0;1.066773836E1
2.943469649E0;5.228936672E0;8.097189903E0;5.200206280E0;1.095209607E1
2.953404472E0;5.343858242E0;8.231265068E0;5.980715752E0;1.149258485E1
2.964198384E0;5.846640587E0;8.106766701E0;6.943184853E0;1.217007348E1
2.973811840E0;5.592854977E0;7.824251175E0;6.957550049E0;1.187040167E1
2.983581068E0;4.764461517E0;7.709329605E0;6.794744492E0;1.132706534E1
2.993994682E0;3.960009575E0;7.546523571E0;6.358999729E0;1.063337065E1
3.003657489E0;3.284844637E0;7.441178799E0;5.904101372E0;1.005085863E1
3.013542892E0;2.518700123E0;7.422025204E0;5.626373768E0;9.648128845E0
3.023511094E0;2.217030764E0;7.436390400E0;5.286397457E0;9.389415619E0
3.033473195E0;2.135627985E0;7.417236805E0;4.965574265E0;9.177866663E0
3.043506245E0;1.991975784E0;7.354987621E0;4.639962673E0;8.921494496E0
3.053462270E0;2.025494576E0;7.321468830E0;4.175487995E0;8.668404357E0
3.063408783E0;2.087743998E0;7.216124058E0;3.859453201E0;8.445501787E0
3.073490039E0;2.231395960E0;7.292738438E0;3.998316765E0;8.611021937E0
3.083473167E0;2.217030764E0;7.254431248E0;4.400542736E0;8.769650763E0
3.093484731E0;1.738190413E0;7.086836815E0;5.032611847E0;8.864070394E0
3.103452513E0;1.034295082E0;6.947973251E0;6.153098583E0;9.338346791E0
3.113447904E0;7.326257229E-1;7.019799232E0;8.896853447E0;1.135642210E1
3.123468600E0;7.757213712E-1;6.876147270E0;1.259350109E1;1.436939159E1
3.133469948E0;6.129156351E-1;6.598419666E0;1.176989555E1;1.350722951E1
3.143476622E0;5.315127969E-1;6.445190907E0;9.777919769E0;1.172308435E1
3.153482459E0;3.112462163E-1;6.229712963E0;7.891288757E0;1.005875917E1
3.163647377E0;2.920926213E-1;6.162675381E0;6.933608055E0;9.281099429E0
3.173516836E0;1.005564705E-1;6.224924564E0;6.651092529E0;9.110259561E0
3.183449066E0;3.830722719E-2;6.157886982E0;6.646304131E0;9.060595903E0
3.193616181E0;5.506663918E-1;6.100425720E0;6.718130112E0;9.091298017E0
3.203520738E0;7.805097699E-1;6.148310184E0;6.775590897E0;9.182567485E0
3.213531517E0;8.810662031E-1;6.129156113E0;6.612784863E0;9.059346331E0
3.223435906E0;9.768342972E-1;6.153098583E0;6.373364925E0;8.912609488E0
3.233442101E0;1.010353088E0;6.272808552E0;6.248866558E0;8.911636985E0
3.243457698E0;8.475474119E-1;6.191405773E0;6.258443356E0;8.844204616E0
3.253452497E0;7.517793179E-1;5.942408562E0;6.411672115E0;8.774219679E0
3.263403396E0;7.661445141E-1;5.837063789E0;6.823474884E0;9.012108554E0
3.273466346E0;6.368576288E-1;5.861005783E0;7.369352818E0;9.437390390E0
3.283459821E0;4.692635238E-1;6.014234543E0;7.900865555E0;9.940568490E0
3.293547058E0;2.968810201E-1;6.114790916E0;7.833827972E0;9.942216402E0
3.303659677E0;1.915361285E-1;6.124367714E0;7.426813602E0;9.628194341E0
3.313651486E0;7.661445439E-2;6.009446144E0;7.158663273E0;9.346965956E0
3.323502891E0;-5.267243832E-2;5.928043365E0;7.192182064E0;9.320512613E0
3.333487593E0;8.619125932E-2;5.741295815E0;7.086836815E0;9.121028594E0
3.343618944E0;6.272808313E-1;5.683835030E0;6.938396454E0;8.991151608E0
3.353597120E0;1.393425345E0;5.702988625E0;6.785167694E0;8.972414061E0
3.363479208E0;1.742978811E0;5.717353821E0;6.742072105E0;9.010085800E0
3.373541252E0;1.599326730E0;5.765237808E0;6.770802498E0;9.035462326E0
3.383457774E0;1.197100878E0;5.774814606E0;6.904877663E0;9.080686636E0
3.393819035E0;9.241618514E-1;5.583278179E0;7.043741226E0;9.035560902E0
3.403670665E0;5.841852427E-1;5.458779812E0;7.465120792E0;9.266476023E0
3.413689480E0;2.729389966E-1;5.420472622E0;8.010998726E0;9.676369140E0
3.423558388E0;-6.703764945E-2;5.281609058E0;7.618350029E0;9.270336858E0
3.433479342E0;1.771709323E-1;5.410895824E0;7.254431248E0;9.051848203E0
3.443591819E0;6.129156351E-1;5.238513470E0;6.986280441E0;8.753616587E0
3.453552557E0;9.337386489E-1;4.989516258E0;6.952761650E0;8.608602379E0
3.463441426E0;1.498770237E0;4.783615112E0;7.862558365E0;9.324650653E0
3.473483361E0;1.608903527E0;4.807557106E0;8.542511940E0;9.933563617E0
3.483437328E0;1.417367458E0;4.922478676E0;8.149862289E0;9.626005514E0
3.493563312E0;1.335964561E0;4.917690277E0;7.872135162E0;9.377579164E0
3.503507304E0;1.436521053E0;4.778826714E0;7.800309181E0;9.259892052E0
3.513478800E0;1.479616642E0;4.596867085E0;7.661445618E0;9.056390084E0
3.523413548E0;1.393425345E0;4.314351559E0;7.580042362E0;8.832457516E0
3.533391422E0;1.335964561E0;4.137180328E0;7.627926826E0;8.779882120E0
3.543436859E0;1.201889277E0;3.945644379E0;7.637503624E0;8.680098444E0
3.553397077E0;1.000776291E0;3.869029999E0;7.589619160E0;8.577485955E0
3.563398186E0;9.289502501E-1;3.811569214E0;7.675810814E0;8.620271463E0
3.573402741E0;1.647210717E0;3.643975019E0;9.653421402E0;1.044894262E1
3.583372018E0;2.260126352E0;3.610456228E0;1.093192482E1;1.173245693E1
3.593399157E0;3.399766386E-1;4.218583584E0;9.040505409E0;9.982122501E0
3.603463726E0;6.703764945E-2;4.592078686E0;9.265560150E0;1.034129033E1
3.613529011E0;4.884171486E-1;4.606443882E0;1.001255131E1;1.103218293E1
3.623475153E0;6.320692301E-1;4.323928356E0;1.011789608E1;1.102123809E1
3.633467224E0;8.714894056E-1;4.022258759E0;9.787496567E0;1.061758675E1
3.643404260E0;1.321599364E0;3.811569214E0;9.528923035E0;1.034770791E1
3.653382278E0;1.532289028E0;3.696647406E0;9.088389397E0;9.930354149E0
3.663389787E0;9.050082564E-1;3.926490784E0;8.489839554E0;9.397539331E0
3.673366041E0;7.661445439E-2;4.242525578E0;7.766790390E0;8.850306549E0
3.683353168E0;-3.351882398E-1;4.367023945E0;7.091625214E0;8.335130321E0
3.693343232E0;-9.528923035E-1;4.687847137E0;6.766014099E0;8.286305649E0
3.703371264E0;-1.101332784E0;4.745307922E0;7.048529625E0;8.568118291E0
3.713362780E0;-6.799532771E-1;4.635174274E0;7.680599213E0;8.996598317E0
3.723347038E0;-4.788403399E-3;4.376600742E0;8.101978302E0;9.208512876E0
3.733405667E0;3.639186621E-1;4.194641590E0;8.245630264E0;9.258394748E0
3.743383481E0;5.602431893E-1;4.074931145E0;8.451532364E0;9.399326336E0
3.753374888E0;3.782838583E-1;4.060565948E0;8.671798706E0;9.582869471E0
3.763376592E0;2.968810201E-1;4.213795185E0;8.676587105E0;9.650252431E0
3.773438444E0;3.016694188E-1;4.395754337E0;8.796297073E0;9.838114801E0
3.783400870E0;4.501099288E-1;4.443638325E0;8.930372238E0;9.984992179E0
3.793396583E0;3.495534360E-1;4.410119534E0;9.050082207E0;1.007349641E1
3.803373939E0;2.011129409E-1;4.381389141E0;9.150638580E0;1.014747277E1
3.813427117E0;2.777273953E-1;4.228160381E0;8.896853447E0;9.854363195E0
3.823822706E0;4.405331016E-1;3.624821424E0;8.451532364E0;9.206617135E0
3.833590501E0;4.405331016E-1;3.620033026E0;8.078036308E0;8.863034419E0
3.843477398E0;3.016694188E-1;3.835511208E0;8.221688271E0;9.077351413E0
3.853424847E0;4.596867263E-1;4.132391930E0;8.513781548E0;9.474832515E0
3.863441071E0;5.698199868E-1;4.295197964E0;8.628703117E0;9.655461556E0
3.873426683E0;6.943184733E-1;4.180276394E0;8.508993149E0;9.505774733E0
3.883398489E0;6.081272364E-1;4.122815132E0;8.279149055E0;9.268858205E0
3.893455892E0;1.867477298E-1;4.003105164E0;8.221688271E0;9.146359040E0
3.903459594E0;1.580173075E-1;3.787626982E0;8.461109161E0;9.271540102E0
3.913434445E0;2.298433632E-1;3.634398222E0;8.757989883E0;9.484938861E0
3.923617870E0;5.602431893E-1;3.658340216E0;8.863334656E0;9.605000093E0
3.933487583E0;7.374141216E-1;3.773261786E0;8.930372238E0;9.722799617E0
3.943443939E0;7.374141216E-1;3.998316765E0;8.853757858E0;9.742655939E0
3.953394617E0;6.368576288E-1;4.146757126E0;8.853757858E0;9.797459391E0
3.963443956E0;6.129156351E-1;4.079719543E0;9.064447403E0;9.959115616E0
3.973410126E0;6.416460276E-1;3.869029999E0;9.088389397E0;9.898480923E0
3.983389711E0;5.985504389E-1;3.849876404E0;8.772355080E0;9.598647019E0
3.993396003E0;6.751648784E-1;3.974374771E0;8.513781548E0;9.419977637E0
4.003376649E0;8.762778044E-1;4.060565948E0;8.413225174E0;9.382878899E0
4.013371972E0;9.289502501E-1;4.089296341E0;8.374917984E0;9.366138178E0
4.023366134E0;6.943184733E-1;4.070142746E0;8.298302650E0;9.268762970E0
4.033376215E0;4.788403511E-1;4.007893562E0;8.279149055E0;9.210689875E0
4.043358255E0;4.788403511E-1;3.931279182E0;8.537723541E0;9.411533741E0
4.053359775E0;7.422025204E-1;3.921702385E0;9.121908188E0;9.956898270E0
4.063368535E0;1.177947283E0;3.931279182E0;9.471462250E0;1.032235985E1
4.073377415E0;1.192312479E0;3.883395195E0;9.203310966E0;1.005998509E1
4.083360855E0;8.236053586E-1;3.945644379E0;8.853757858E0;9.728076046E0
4.093375075E0;4.070142806E-1;3.964797974E0;8.676587105E0;9.548216974E0
4.103359185E0;2.059013397E-1;3.974374771E0;8.743624687E0;9.606717590E0
4.113480740E0;2.298433632E-1;3.873818398E0;8.978256226E0;9.781021511E0
4.123420018E0;4.213795066E-1;3.706224203E0;8.992621422E0;9.735548190E0
4.133393657E0;6.512228847E-1;3.591302633E0;8.757989883E0;9.488094258E0
4.143366976E0;7.852981687E-1;3.658340216E0;8.504204750E0;9.290944235E0
4.153434636E0;9.050082564E-1;3.720589399E0;8.384494781E0;9.217460505E0
4.163487966E0;1.120486379E0;3.792415380E0;8.441955566E0;9.322259272E0
4.173442631E0;1.115697980E0;3.811569214E0;8.398859978E0;9.290516174E0
4.183409963E0;8.810662031E-1;3.763684988E0;8.389283180E0;9.236973239E0
4.193398629E0;5.793967843E-1;3.701435804E0;8.394071579E0;9.192212210E0
4.203359462E0;3.351882398E-1;3.610456228E0;8.374917984E0;9.126170970E0
4.213390379E0;2.059013397E-1;3.653551817E0;8.485051155E0;9.240504821E0
4.223404337E0;1.340752989E-1;3.596091032E0;8.576030731E0;9.300438162E0
4.233458316E0;4.118026793E-1;3.500322819E0;8.461109161E0;9.165817450E0
4.243403806E0;8.092401624E-1;3.361459255E0;8.307879448E0;8.998618721E0
4.253403551E0;9.289502501E-1;3.428496838E0;8.188169479E0;8.925450048E0
4.263398423E0;8.906430602E-1;3.658340216E0;8.255207062E0;9.073320331E0
4.273405859E0;7.661445141E-1;3.811569214E0;8.461109161E0;9.311573741E0
4.283387577E0;6.895300746E-1;3.830722809E0;8.671798706E0;9.505260741E0
4.293474936E0;8.858546019E-1;3.744531393E0;8.738836288E0;9.548482257E0
4.303456116E0;1.077390790E0;3.687070608E0;8.801085472E0;9.602831149E0
4.313417206E0;1.082179189E0;3.529053211E0;8.777143478E0;9.521742278E0
4.323426251E0;1.077390790E0;3.471592426E0;8.810662270E0;9.531027988E0
4.333407273E0;1.015141487E0;3.457227230E0;8.714894295E0;9.430393148E0
4.343379284E0;8.475474119E-1;3.543418407E0;8.518569946E0;9.264997817E0
4.354376790E0;6.320692301E-1;3.778050184E0;8.480262756E0;9.305268998E0
4.364028543E0;6.464344859E-1;3.912125587E0;8.561665535E0;9.435291246E0
4.373673419E0;8.762778044E-1;4.161122322E0;8.657433510E0;9.645411176E0
4.383534857E0;9.816226959E-1;4.223371983E0;8.643068314E0;9.669699266E0
4.393519576E0;9.911994934E-1;4.079719543E0;8.504204750E0;9.484096500E0
4.403836436E0;9.385270476E-1;3.849876404E0;8.633491516E0;9.499450358E0
4.413611866E0;8.092401624E-1;3.706224203E0;9.006986618E0;9.773268410E0
4.423482581E0;7.757213712E-1;3.667917013E0;6.660669327E0;7.643289524E0
4.433493438E0;1.532289028E0;3.778050184E0;7.297526836E0;8.359154909E0
4.443468867E0;1.316810966E0;3.892971992E0;8.810662270E0;9.721984966E0
4.453461581E0;1.139639974E0;3.888183594E0;9.327810287E0;1.016979821E1
4.463407438E0;8.906430602E-1;3.864241600E0;9.476250648E0;1.027253302E1
4.473470367E0;7.326257229E-1;3.830722809E0;9.720458984E0;1.047370520E1
4.483597831E0;8.188169599E-1;3.849876404E0;9.246406555E0;1.004928076E1
4.493519063E0;9.528923035E-1;3.878606796E0;9.165003777E0;9.997444106E0
4.503471179E0;8.810662031E-1;3.859453201E0;9.006986618E0;9.838570252E0
4.513418737E0;6.703764796E-1;3.835511208E0;8.853757858E0;9.672103135E0
4.523384016E0;3.639186621E-1;3.663128614E0;8.949525833E0;9.677032638E0
4.533375156E0;3.112462163E-1;3.586514235E0;8.848969460E0;9.553230818E0
4.543346726E0;5.889736414E-1;3.610456228E0;8.556877136E0;9.306042685E0
4.553379011E0;1.077390790E0;3.758896589E0;8.236053467E0;9.117162453E0
4.563379653E0;1.335964561E0;3.940855980E0;8.216899872E0;9.210460937E0
4.573385474E0;1.407790542E0;3.840299606E0;8.140285492E0;9.110105552E0
4.617196452E0;9.911994934E-1;3.308786631E0;8.738836288E0;9.396691177E0
4.638909452E0;1.015141487E0;3.466804028E0;8.892065048E0;9.597815544E0
4.654694452E0;1.043871999E0;3.572149038E0;9.045293808E0;9.780964041E0
4.667580452E0;1.034295082E0;3.572149038E0;9.030928612E0;9.766662002E0
4.679105952E0;1.039083481E0;3.447650433E0;8.987833023E0;9.682310181E0
4.689744702E0;1.048660398E0;3.361459255E0;8.848969460E0;9.523831028E0
4.700138577E0;1.024718285E0;3.275267839E0;8.695740700E0;9.348440153E0
4.710332014E0;9.481038451E-1;3.270479441E0;8.647856712E0;9.294103636E0
4.720451733E0;9.624691010E-1;3.275267839E0;8.571242332E0;9.226045811E0
4.730481092E0;9.959878922E-1;3.308786631E0;8.480262756E0;9.157233057E0
4.740546272E0;9.576807022E-1;3.265691042E0;8.403648376E0;9.066597837E0
4.750482362E0;8.475474119E-1;3.232172251E0;8.489839554E0;9.123740994E0
4.760544907E0;8.667010069E-1;3.232172251E0;8.772355080E0;9.388946785E0
4.770542679E0;9.289502501E-1;3.280056238E0;8.877699852E0;9.509746167E0
4.780757065E0;9.385270476E-1;3.280056238E0;8.925583839E0;9.555398936E0
4.790823258E0;8.714894056E-1;3.270479441E0;8.853757858E0;9.478636915E0
4.800779355E0;8.427590132E-1;3.284844637E0;8.791508675E0;9.422901454E0
4.810850903E0;9.002198577E-1;3.327940464E0;8.767566681E0;9.421030147E0
4.820735177E0;9.768342972E-1;3.299209833E0;8.777143478E0;9.427472535E0
4.830649814E0;9.433154464E-1;3.289633036E0;8.839392662E0;9.478733680E0
4.840632133E0;8.858546019E-1;3.289633036E0;8.935160637E0;9.562610496E0
4.850512292E0;8.810662031E-1;3.280056238E0;9.112331390E0;9.724691766E0
4.860509372E0;9.672574997E-1;3.260902643E0;9.184157372E0;9.793764330E0
4.870535412E0;9.768342972E-1;3.280056238E0;9.131484985E0;9.751768671E0
4.880600932E0;9.576807022E-1;3.323152065E0;8.892065048E0;9.540928299E0
4.890560192E0;9.959878922E-1;3.327940464E0;8.796297073E0;9.457379226E0
4.900537822E0;9.768342972E-1;3.246537447E0;8.796297073E0;9.427038392E0
4.910493137E0;8.906430602E-1;3.246537447E0;8.839392662E0;9.458758538E0
4.920510294E0;9.481038451E-1;3.213018656E0;8.853757858E0;9.466330757E0
4.930511873E0;8.858546019E-1;3.246537447E0;8.834604263E0;9.453833945E0
4.940568162E0;7.948749661E-1;3.246537447E0;8.724471092E0;9.342816890E0
4.950577807E0;8.092401624E-1;3.265691042E0;8.647856712E0;9.279279786E0
4.960532129E0;8.379706144E-1;3.280056238E0;8.623914719E0;9.264603000E0
4.970452790E0;9.433154464E-1;3.294421434E0;8.695740700E0;9.346601678E0
4.980475121E0;9.145850539E-1;3.265691042E0;8.786720276E0;9.418474240E0
4.990498786E0;9.528923035E-1;3.260902643E0;8.892065048E0;9.518944827E0
5.000511619E0;9.864110947E-1;3.222595453E0;8.925583839E0;9.540659054E0
5.010454535E0;9.959878922E-1;3.236960649E0;8.920795441E0;9.542038431E0
5.020503993E0;9.624691010E-1;3.313575268E0;8.796297073E0;9.448860779E0
5.030504222E0;9.720458984E-1;3.375824451E0;8.729259491E0;9.409624605E0
5.040531837E0;9.959878922E-1;3.303998232E0;8.676587105E0;9.337642100E0
5.050547144E0;1.067813993E0;3.284844637E0;8.757989883E0;9.414500401E0
5.060526798E0;1.077390790E0;3.327940464E0;8.777143478E0;9.448502860E0
5.070519625E0;1.101332784E0;3.418920040E0;8.868123055E0;9.567944118E0
5.080523038E0;1.264138460E0;3.327940464E0;8.887276649E0;9.573762062E0
5.090465745E0;1.201889277E0;3.265691042E0;9.026140213E0;9.673700582E0
5.100442598E0;1.029506683E0;3.256114244E0;8.983044624E0;9.610268191E0
5.110473525E0;9.576807022E-1;3.265691042E0;8.825027466E0;9.458488256E0
5.120510988E0;9.864110947E-1;3.275267839E0;8.719682693E0;9.366603042E0
5.130462720E0;9.816226959E-1;3.260902643E0;8.690952301E0;9.334330242E0
5.140473586E0;1.000776291E0;3.251325846E0;8.714894295E0;9.355322309E0
5.150460519E0;1.015141487E0;3.289633036E0;8.681375504E0;9.339083380E0
5.160442485E0;1.019929886E0;3.294421434E0;8.738836288E0;9.394718156E0
5.170431968E0;9.624691010E-1;3.251325846E0;8.738836288E0;9.373618629E0
5.180472210E0;9.528923035E-1;3.165134668E0;8.734047890E0;9.338611982E0
5.190436831E0;9.097966552E-1;3.155557871E0;8.671798706E0;9.272829570E0
5.200449641E0;8.810662031E-1;3.169923067E0;8.657433510E0;9.261524976E0
5.210420546E0;9.576807022E-1;3.275267839E0;8.805873871E0;9.443937017E0
5.220428499E0;1.015141487E0;3.327940464E0;8.911218643E0;9.566374322E0
5.230459475E0;1.053448796E0;3.409343243E0;8.997409821E0;9.679192073E0
5.240597963E0;9.959878922E-1;3.342305660E0;8.997409821E0;9.649683025E0
5.250498207E0;9.481038451E-1;3.294421434E0;8.959102631E0;9.592582209E0
5.260456829E0;9.002198577E-1;3.217807055E0;8.920795441E0;9.526031142E0
5.270417140E0;8.331822157E-1;3.232172251E0;8.839392662E0;9.448597393E0
5.280432796E0;9.050082564E-1;3.260902643E0;8.805873871E0;9.433765983E0
5.290416624E0;9.193734527E-1;3.318363667E0;8.748413086E0;9.401676260E0
5.300413038E0;9.193734527E-1;3.308786631E0;8.700529099E0;9.353743802E0
5.310461745E0;9.816226959E-1;3.332728863E0;8.791508675E0;9.453110047E0
5.320570598E0;1.053448796E0;3.327940464E0;8.858546257E0;9.521490634E0
5.330508025E0;1.086967587E0;3.351882458E0;8.882488251E0;9.555899333E0
5.340524238E0;1.024718285E0;3.332728863E0;8.858546257E0;9.520029991E0
5.350473845E0;1.005564690E0;3.361459255E0;8.757989883E0;9.434667745E0
5.360503148E0;9.720458984E-1;3.351882458E0;8.743624687E0;9.414401835E0
5.370463800E0;9.337386489E-1;3.294421434E0;8.796297073E0;9.439275537E0
5.380486626E0;9.097966552E-1;3.299209833E0;8.786720276E0;9.429685503E0
5.390441039E0;8.188169599E-1;3.308786631E0;8.796297073E0;9.433629863E0
5.400428245E0;8.571242094E-1;3.294421434E0;8.767566681E0;9.405216638E0
5.410438348E0;8.571242094E-1;3.303998232E0;8.743624687E0;9.386268635E0
5.420569900E0;8.667010069E-1;3.327940464E0;8.705317497E0;9.359963199E0
5.430498676E0;9.050082564E-1;3.313575268E0;8.757989883E0;9.407508055E0
5.440448564E0;8.475474119E-1;3.356670856E0;8.858546257E0;9.511015595E0
5.450463508E0;8.379706144E-1;3.318363667E0;8.825027466E0;9.465455190E0
5.460443980E0;7.996633649E-1;3.236960649E0;8.753201485E0;9.366745004E0
5.470414216E0;8.044517636E-1;3.246537447E0;8.690952301E0;9.312346639E0
5.480427834E0;8.475474119E-1;3.289633036E0;8.667010307E0;9.308978988E0
5.490496643E0;9.002198577E-1;3.289633036E0;8.686163902E0;9.331748209E0
5.500460047E0;9.050082564E-1;3.260902643E0;8.676587105E0;9.313199761E0
5.510450749E0;8.810662031E-1;3.260902643E0;8.657433510E0;9.293057553E0
5.520422100E0;9.002198577E-1;3.308786631E0;8.647856712E0;9.302896886E0
5.530445776E0;8.858546019E-1;3.351882458E0;8.829815865E0;9.486068869E0
5.540427114E0;8.762778044E-1;3.308786631E0;8.968679428E0;9.599642829E0
5.550428783E0;9.050082564E-1;3.337517262E0;8.992621422E0;9.634588806E0
5.560470617E0;9.050082564E-1;3.342305660E0;8.954314232E0;9.600509905E0
5.570525034E0;8.571242094E-1;3.404554844E0;8.935160637E0;9.600143291E0
5.580549743E0;8.044517636E-1;3.380612850E0;8.887276649E0;9.542503452E0
5.590488097E0;8.092401624E-1;3.371036053E0;8.848969460E0;9.503842076E0
5.600451274E0;7.757213712E-1;3.337517262E0;8.877699852E0;9.516003351E0
5.610455363E0;7.565677166E-1;3.308786631E0;8.892065048E0;9.517840327E0
5.620441907E0;7.757213712E-1;3.356670856E0;8.868123055E0;9.513810456E0
5.630430179E0;7.613561153E-1;3.351882458E0;8.820239067E0;9.466329613E0
5.640477315E0;7.565677166E-1;3.394978046E0;8.753201485E0;9.418959968E0
5.650514383E0;6.943184733E-1;3.409343243E0;8.734047890E0;9.401557958E0
5.660530417E0;6.895300746E-1;3.356670856E0;8.738836288E0;9.386690079E0
5.670487434E0;7.374141216E-1;3.323152065E0;8.791508675E0;9.427499351E0
5.680454443E0;7.661445141E-1;3.366247654E0;8.767566681E0;9.422782296E0
5.690434947E0;8.140285611E-1;3.347094059E0;8.734047890E0;9.388784462E0
5.700456199E0;8.571242094E-1;3.375824451E0;8.748413086E0;9.416240447E0
5.710435325E0;8.475474119E-1;3.371036053E0;8.805873871E0;9.467081668E0
5.720427388E0;8.283938169E-1;3.303998232E0;8.868123055E0;9.499802479E0
5.730415920E0;8.283938169E-1;3.232172251E0;8.844181061E0;9.452656368E0
5.740523686E0;8.283938169E-1;3.208230257E0;8.772355080E0;9.377269930E0
5.750476069E0;8.523358107E-1;3.213018656E0;8.710105896E0;9.322870263E0
5.760491760E0;8.906430602E-1;3.275267839E0;8.743624687E0;9.379317521E0
5.770434106E0;8.667010069E-1;3.294421434E0;8.820239067E0;9.455210226E0
5.780485779E0;7.852981687E-1;3.337517262E0;8.839392662E0;9.481064145E0
5.790434615E0;8.188169599E-1;3.332728863E0;8.863334656E0;9.504538080E0
5.800447033E0;7.900865674E-1;3.337517262E0;8.848969460E0;9.490390864E0
5.810474242E0;7.709329724E-1;3.284844637E0;8.791508675E0;9.416749265E0
5.820583847E0;7.948749661E-1;3.280056238E0;8.753201485E0;9.381318211E0
5.830624649E0;7.805097699E-1;3.193865061E0;8.777143478E0;9.372737976E0
5.840579550E0;7.852981687E-1;3.189076662E0;8.853757858E0;9.443300873E0
5.850511001E0;8.092401624E-1;3.246537447E0;8.887276649E0;9.496239323E0
5.860479726E0;8.619126081E-1;3.284844637E0;8.892065048E0;9.518504003E0
5.870458089E0;8.619126081E-1;3.337517262E0;8.939949036E0;9.581471890E0
5.880444270E0;8.523358107E-1;3.385401249E0;8.925583839E0;9.584021328E0
5.890419361E0;8.379706144E-1;3.414131641E0;8.853757858E0;9.526149161E0
5.900576906E0;8.188169599E-1;3.375824451E0;8.796297073E0;9.457351328E0
5.910619179E0;8.379706144E-1;3.366247654E0;8.805873871E0;9.464524956E0
5.920555315E0;7.422025204E-1;3.318363667E0;8.791508675E0;9.426188348E0
5.930478883E0;7.374141216E-1;3.294421434E0;8.796297073E0;9.421880618E0
5.940592667E0;7.565677166E-1;3.270479441E0;8.777143478E0;9.397163302E0
5.950500059E0;7.805097699E-1;3.251325846E0;8.757989883E0;9.374577433E0
5.960454255E0;8.283938169E-1;3.246537447E0;8.805873871E0;9.421765033E0
5.970414853E0;8.667010069E-1;3.203441858E0;8.848969460E0;9.450792076E0
5.980490152E0;9.002198577E-1;3.232172251E0;8.858546257E0;9.472654065E0
5.990620302E0;9.002198577E-1;3.294421434E0;8.815450668E0;9.453876394E0
6.000499877E0;7.948749661E-1;3.318363667E0;8.762778282E0;9.403703890E0
6.010559664E0;7.278373241E-1;3.303998232E0;8.657433510E0;9.295015141E0
6.020548558E0;6.943184733E-1;3.313575268E0;8.662221909E0;9.300319757E0
6.030498005E0;7.038952708E-1;3.313575268E0;8.753201485E0;9.385828991E0
6.040508228E0;6.847416759E-1;3.241749048E0;8.815450668E0;9.417535694E0
6.050441840E0;6.416460276E-1;3.289633036E0;8.829815865E0;9.444524516E0
6.060528146E0;6.943184733E-1;3.284844637E0;8.810662270E0;9.428682414E0
6.070525299E0;7.422025204E-1;3.327940464E0;8.820239067E0;9.456356038E0
6.080476375E0;8.379706144E-1;3.371036053E0;8.844181061E0;9.501874418E0
6.090471913E0;9.145850539E-1;3.337517262E0;8.829815865E0;9.483730041E0
6.100559682E0;9.241618514E-1;3.299209833E0;8.887276649E0;9.524838418E0
6.110600067E0;8.667010069E-1;3.294421434E0;8.916007042E0;9.544609201E0
6.120582759E0;9.241618514E-1;3.246537447E0;8.892065048E0;9.511198733E0
6.130496105E0;9.385270476E-1;3.251325846E0;8.815450668E0;9.442675641E0
6.140567778E0;9.097966552E-1;3.280056238E0;8.762778282E0;9.400679874E0
6.150503115E0;8.331822157E-1;3.356670856E0;8.767566681E0;9.425054766E0
6.160491283E0;8.188169599E-1;3.409343243E0;8.815450668E0;9.487162539E0
6.170431367E0;9.002198577E-1;3.380612850E0;8.791508675E0;9.462006331E0
6.180495909E0;9.050082564E-1;3.356670856E0;8.844181061E0;9.502937326E0
6.190579680E0;7.948749661E-1;3.303998232E0;8.906430244E0;9.532718932E0
6.200498066E0;7.278373241E-1;3.232172251E0;8.944737434E0;9.538606418E0
6.210464759E0;7.948749661E-1;3.246537447E0;8.863334656E0;9.472620167E0
6.220475605E0;8.379706144E-1;3.294421434E0;8.796297073E0;9.430283641E0
6.230449028E0;8.092401624E-1;3.308786631E0;8.700529099E0;9.343561698E0
6.240436240E0;8.379706144E-1;3.303998232E0;8.657433510E0;9.304286864E0
6.250405846E0;8.092401624E-1;3.232172251E0;8.690952301E0;9.307763372E0
6.260562149E0;7.948749661E-1;3.236960649E0;8.743624687E0;9.357388157E0
6.270641800E0;7.996633649E-1;3.265691042E0;8.872911453E0;9.488559276E0
6.280653126E0;9.289502501E-1;3.337517262E0;8.920795441E0;9.569877812E0
6.290558789E0;9.720458984E-1;3.423708439E0;8.868123055E0;9.555640178E0
6.300568620E0;9.002198577E-1;3.361459255E0;8.796297073E0;9.459632462E0
6.310505036E0;8.762778044E-1;3.351882458E0;8.738836288E0;9.400544584E0
6.320555744E0;8.236053586E-1;3.265691042E0;8.772355080E0;9.396663100E0
6.330488098E0;7.805097699E-1;3.213018656E0;8.858546257E0;9.455502428E0
6.340603775E0;7.757213712E-1;3.236960649E0;8.911218643E0;9.512595629E0
6.350507113E0;7.517793179E-1;3.275267839E0;8.992621422E0;9.599989146E0
6.360576282E0;7.374141216E-1;3.342305660E0;8.930372238E0;9.563803377E0
6.370621867E0;7.948749661E-1;3.332728863E0;8.777143478E0;9.422162996E0
6.380551659E0;7.996633649E-1;3.241749048E0;8.633491516E0;9.256650266E0
6.390588055E0;8.188169599E-1;3.251325846E0;8.537723541E0;9.172475360E0
6.400530253E0;8.044517636E-1;3.270479441E0;8.609549522E0;9.244864596E0
6.410537852E0;8.475474119E-1;3.265691042E0;8.781931877E0;9.407730975E0
6.420485652E0;8.619126081E-1;3.284844637E0;8.848969460E0;9.478257125E0
6.430464552E0;8.667010069E-1;3.280056238E0;8.839392662E0;9.468093905E0
6.440703502E0;8.810662031E-1;3.327940464E0;8.920795441E0;9.562011121E0
6.450573477E0;8.379706144E-1;3.356670856E0;8.939949036E0;9.586037907E0
6.460644964E0;8.140285611E-1;3.342305660E0;8.939949036E0;9.578952886E0
6.470537208E0;8.571242094E-1;3.299209833E0;8.944737434E0;9.572239822E0
6.480578330E0;8.954314590E-1;3.265691042E0;8.887276649E0;9.510532147E0
6.490606391E0;9.624691010E-1;3.260902643E0;8.844181061E0;9.475197700E0
6.500622421E0;8.906430602E-1;3.246537447E0;8.777143478E0;9.400611581E0
6.510522436E0;8.523358107E-1;3.236960649E0;8.729259491E0;9.349029995E0
6.520541944E0;8.283938169E-1;3.222595453E0;8.738836288E0;9.350861856E0
6.530518198E0;7.422025204E-1;3.246537447E0;8.719682693E0;9.334009656E0
6.540466825E0;7.278373241E-1;3.280056238E0;8.729259491E0;9.353528070E0
6.550600638E0;7.565677166E-1;3.294421434E0;8.777143478E0;9.405522577E0
6.560615545E0;7.805097699E-1;3.361459255E0;8.786720276E0;9.440077173E0
6.570519498E0;8.044517636E-1;3.380612850E0;8.834604263E0;9.493467142E0
6.580466975E0;8.475474119E-1;3.390189648E0;8.992621422E0;9.647743907E0
6.590441713E0;7.852981687E-1;3.356670856E0;8.997409821E0;9.635212293E0
6.600477082E0;7.374141216E-1;3.380612850E0;8.844181061E0;9.496939584E0
6.610693767E0;7.182605267E-1;3.318363667E0;8.743624687E0;9.379680606E0
6.620594609E0;8.188169599E-1;3.313575268E0;8.738836288E0;9.381764330E0
6.630514530E0;9.481038451E-1;3.270479441E0;8.791508675E0;9.427913950E0
6.640558491E0;8.571242094E-1;3.232172251E0;8.825027466E0;9.437304125E0
6.650559971E0;8.714894056E-1;3.198653460E0;8.734047890E0;9.342080618E0
6.660726211E0;9.145850539E-1;3.246537447E0;8.690952301E0;9.322506268E0
6.670580331E0;9.193734527E-1;3.284844637E0;8.729259491E0;9.372055436E0
6.680850391E0;9.385270476E-1;3.318363667E0;8.796297073E0;9.448132760E0
6.690714921E0;8.954314590E-1;3.361459255E0;8.834604263E0;9.494811126E0
6.700609686E0;8.619126081E-1;3.303998232E0;8.810662270E0;9.449183419E0
6.710558569E0;8.523358107E-1;3.327940464E0;8.920795441E0;9.559406643E0
6.720721010E0;8.858546019E-1;3.361459255E0;9.002198219E0;9.650063185E0
6.730579231E0;8.906430602E-1;3.361459255E0;8.944737434E0;9.596925610E0
6.740587341E0;8.858546019E-1;3.342305660E0;8.805873871E0;9.460399576E0
6.750490896E0;9.241618514E-1;3.294421434E0;8.705317497E0;9.353600400E0
6.760469174E0;9.672574997E-1;3.284844637E0;8.748413086E0;9.394707174E0
6.770527313E0;8.810662031E-1;3.294421434E0;8.825027466E0;9.461004176E0
6.780530382E0;8.427590132E-1;3.327940464E0;8.825027466E0;9.469241800E0
6.791187417E0;7.996633649E-1;3.299209833E0;8.700529099E0;9.339349743E0
6.800876434E0;8.523358107E-1;3.308786631E0;8.638279915E0;9.289479274E0
6.810674943E0;8.954314590E-1;3.323152065E0;8.662221909E0;9.320902614E0
6.820541197E0;8.810662031E-1;3.371036053E0;8.796297073E0;9.461236913E0
6.830473824E0;8.475474119E-1;3.428496838E0;8.944737434E0;9.616717473E0
6.840972638E0;8.283938169E-1;3.390189648E0;8.930372238E0;9.588074388E0
6.850684045E0;9.241618514E-1;3.332728863E0;8.825027466E0;9.478516053E0
6.860578748E0;9.385270476E-1;3.280056238E0;8.810662270E0;9.448141170E0
6.870474600E0;1.010353088E0;3.313575268E0;8.906430244E0;9.556416385E0
6.880552026E0;9.624691010E-1;3.371036053E0;8.906430244E0;9.571558417E0
6.890522739E0;9.337386489E-1;3.414131641E0;8.997409821E0;9.668585533E0
6.900544095E0;9.289502501E-1;3.428496838E0;9.083600998E0;9.753427409E0
6.910560273E0;9.911994934E-1;3.399766445E0;8.939949036E0;9.615798307E0
6.920565362E0;9.959878922E-1;3.390189648E0;8.781931877E0;9.466134651E0
6.930561907E0;9.002198577E-1;3.409343243E0;8.671798706E0;9.361309200E0
6.940569679E0;8.092401624E-1;3.356670856E0;8.561665535E0;9.231696789E0
6.950496065E0;8.475474119E-1;3.313575268E0;8.537723541E0;9.197327924E0
6.960554258E0;8.188169599E-1;3.275267839E0;8.547300339E0;9.189895740E0
6.970556355E0;8.331822157E-1;3.251325846E0;8.599972725E0;9.231730240E0
6.980536903E0;8.954314590E-1;3.303998232E0;8.738836288E0;9.385385527E0
6.990507177E0;8.954314590E-1;3.394978046E0;8.657433510E0;9.342313868E0
7.000519314E0;9.433154464E-1;3.438073635E0;8.671798706E0;9.376048589E0
7.010463883E0;9.193734527E-1;3.495534420E0;8.671798706E0;9.394897617E0
7.020557667E0;9.289502501E-1;3.418920040E0;8.676587105E0;9.372039618E0
7.030503059E0;8.188169599E-1;3.414131641E0;8.815450668E0;9.488884369E0
7.040553255E0;7.852981687E-1;3.375824451E0;8.963891029E0;9.610630902E0
7.050530853E0;7.900865674E-1;3.327940464E0;8.882488251E0;9.518299325E0
7.060815652E0;7.230489254E-1;3.318363667E0;8.810662270E0;9.442568867E0
7.070849552E0;7.278373241E-1;3.342305660E0;8.863334656E0;9.500497646E0
7.080727002E0;7.757213712E-1;3.418920040E0;8.911218643E0;9.576041750E0
7.090657227E0;7.182605267E-1;3.519476414E0;7.623138428E0;8.427031025E0
7.100560839E0;1.268926859E0;3.514688015E0;7.244854450E0;8.151755837E0
7.110593645E0;9.911994934E-1;3.533841610E0;8.868123055E0;9.597610092E0
7.120673048E0;8.762778044E-1;3.409343243E0;9.227252960E0;9.875914202E0
7.130583250E0;8.283938169E-1;3.275267839E0;8.992621422E0;9.606292509E0
7.140708851E0;6.655880809E-1;3.246537447E0;8.959102631E0;9.552409792E0
7.150549651E0;6.751648784E-1;3.265691042E0;8.882488251E0;9.487843966E0
7.160597551E0;6.991068721E-1;3.399766445E0;8.925583839E0;9.576701372E0
7.170616501E0;7.709329724E-1;3.572149038E0;9.260771751E0;9.955725982E0
7.180620476E0;8.619126081E-1;3.658340216E0;9.907206535E0;1.059618270E1
7.190546464E0;8.954314590E-1;3.682282209E0;1.001733971E1;1.071018649E1
7.200555958E0;9.864110947E-1;3.572149038E0;9.208099365E0;9.925842509E0
7.210561205E0;1.043871999E0;3.452438831E0;8.063671112E0;8.833560688E0
7.220596828E0;1.048660398E0;3.457227230E0;7.354987621E0;8.194385374E0
7.230555140E0;8.140285611E-1;3.481169224E0;7.364564419E0;8.186451658E0
