"Time (s)";"Acceleration x (m/s^2)";"Acceleration y (m/s^2)";"Acceleration z (m/s^2)";"Absolute acceleration (m/s^2)"
0.000000000E0;1.110909581E0;6.617573261E0;6.823474884E0;9.570068206E0
2.302916600E-2;7.757213712E-1;6.675034523E0;7.278373241E0;9.906187287E0
3.769516600E-2;7.422025204E-1;6.651092529E0;7.364564419E0;9.951115791E0
5.002316600E-2;7.182605267E-1;6.540958881E0;7.402871609E0;9.904673106E0
6.119716600E-2;6.895300746E-1;6.387730122E0;7.206547260E0;9.654681312E0
7.176616600E-2;1.283292055E0;6.335057735E0;7.024587631E0;9.545921977E0
8.206816600E-2;1.053448796E0;6.540958881E0;6.856993675E0;9.534792065E0
9.221416600E-2;6.847416759E-1;6.670246124E0;6.746860504E0;9.512159649E0
1.022766660E-1;6.129156351E-1;6.670246124E0;6.574477673E0;9.385712845E0
1.125814160E-1;7.278373241E-1;6.646304131E0;6.378153324E0;9.240343370E0
1.225157910E-1;9.385270476E-1;6.584054470E0;6.315904140E0;9.171763810E0
1.324704780E-1;1.130063176E0;6.603208065E0;6.258443356E0;9.167743057E0
1.424168220E-1;1.350329757E0;6.742072105E0;6.210559368E0;9.265526126E0
1.524659940E-1;1.489193439E0;6.799532890E0;6.234501362E0;9.344535936E0
1.624085800E-1;1.877054095E0;6.794744492E0;6.258443356E0;9.426558121E0
1.723818730E-1;1.479616642E0;7.024587631E0;6.263231754E0;9.526918117E0
1.823625190E-1;1.201889277E0;7.125144482E0;6.272808552E0;9.568717200E0
1.924038420E-1;1.206677675E0;6.981492043E0;6.248866558E0;9.446990813E0
2.023685040E-1;1.091755986E0;7.115567684E0;6.813898087E0;9.912236969E0
2.124053350E-1;9.720458984E-1;7.354987621E0;7.819462776E0;1.077890135E1
2.224847500E-1;8.906430602E-1;7.173028469E0;8.427590370E0;1.110269616E1
2.325304580E-1;1.110909581E0;6.986280441E0;8.480262756E0;1.104341844E1
2.425623120E-1;1.273715258E0;6.789956093E0;8.078036308E0;1.062922974E1
2.525327390E-1;1.431732655E0;6.536170483E0;7.259219646E0;9.872570731E0
2.624914520E-1;1.297657371E0;6.378153324E0;6.090848923E0;8.914213094E0
2.724653090E-1;1.077390790E0;6.430825710E0;5.588066578E0;8.587361545E0
2.824477370E-1;6.607996821E-1;6.588842869E0;5.363011837E0;8.521232454E0
2.925449510E-1;4.453215301E-1;6.914454460E0;5.377377033E0;8.770642822E0
3.024505580E-1;4.070142806E-1;7.096413612E0;5.583278179E0;9.038680324E0
3.124023620E-1;4.501099288E-1;7.350199223E0;5.717353821E0;9.322883796E0
3.223757640E-1;6.033388376E-1;7.364564419E0;5.770026207E0;9.375181559E0
3.323729650E-1;7.517793179E-1;7.268796444E0;5.770026207E0;9.310949270E0
3.423580650E-1;8.379706144E-1;7.201758862E0;5.726930618E0;9.239332214E0
3.523716150E-1;6.081272364E-1;7.364564419E0;5.564124584E0;9.250195144E0
3.623648900E-1;4.309563041E-1;7.738059998E0;5.602431774E0;9.562977447E0
3.724010280E-1;1.867477298E-1;7.857769966E0;5.846640587E0;9.796051741E0
3.823735970E-1;1.388636976E-1;7.747636795E0;6.019022942E0;9.811921127E0
3.923758810E-1;5.746084079E-2;7.623138428E0;5.851428986E0;9.610138522E0
4.027850230E-1;-4.644751251E-1;7.843404770E0;5.798756599E0;9.765260551E0
4.126115940E-1;-3.064578176E-1;7.785943985E0;5.861005783E0;9.750191225E0
4.225723800E-1;4.979939461E-1;7.728483200E0;5.712565422E0;9.623453343E0
4.324692730E-1;1.034295082E0;7.857769966E0;5.181052685E0;9.468770885E0
4.424377190E-1;1.292868972E0;7.862558365E0;4.750096321E0;9.276569909E0
4.524689420E-1;1.177947283E0;7.637503624E0;4.635174274E0;9.011318547E0
4.624780540E-1;1.034295082E0;7.503427982E0;4.405331135E0;8.762313633E0
4.725121100E-1;8.858546019E-1;7.465120792E0;4.247313976E0;8.634375648E0
4.824406380E-1;7.948749661E-1;7.484274387E0;4.434061527E0;8.735393005E0
4.923949020E-1;7.469909191E-1;7.570465565E0;4.826710701E0;9.009277468E0
5.023700340E-1;7.374141216E-1;7.513004780E0;5.391742229E0;9.276847777E0
5.124176000E-1;6.751648784E-1;7.340622425E0;6.124367714E0;9.583760488E0
5.225253830E-1;6.416460276E-1;7.307103634E0;6.823474884E0;1.001824748E1
5.324432740E-1;5.841852427E-1;7.522581577E0;7.465120792E0;1.061407247E1
5.424077200E-1;4.548983276E-1;7.584830761E0;7.920019150E0;1.097557714E1
5.523824430E-1;4.644751251E-1;7.556100368E0;7.967903137E0;1.099080845E1
5.624103040E-1;4.596867263E-1;7.393294811E0;7.852981567E0;1.079543605E1
5.724242350E-1;5.027823448E-1;7.268796444E0;7.627926826E0;1.054862358E1
5.823872000E-1;3.591302633E-1;7.556100368E0;7.422025204E0;1.059764528E1
5.924076830E-1;1.723825186E-1;7.843404770E0;7.211335659E0;1.065608165E1
6.023949240E-1;2.873042040E-2;7.800309181E0;6.818686485E0;1.036050839E1
6.124130450E-1;2.106897533E-1;7.580042362E0;6.804321289E0;1.018823933E1
6.224066050E-1;4.453215301E-1;7.532158375E0;7.086836815E0;1.035156882E1
6.323938850E-1;3.782838583E-1;7.704541206E0;7.335834026E0;1.064506997E1
6.423860250E-1;3.016694188E-1;7.867346764E0;7.278373241E0;1.072198053E1
6.524075950E-1;1.101332754E-1;7.967903137E0;6.924031258E0;1.055660071E1
6.625213800E-1;-1.532289088E-1;7.948749542E0;6.330269337E0;1.016259850E1
6.724332730E-1;-4.022258818E-1;7.900865555E0;5.525817394E0;9.649876686E0
6.824287190E-1;-5.602431893E-1;7.905653954E0;4.745307922E0;9.237487978E0
6.924484420E-1;-7.182605267E-1;7.843404770E0;4.122815132E0;8.890022564E0
7.027863040E-1;-7.565677166E-1;7.785943985E0;3.677493811E0;8.643915732E0
7.126312350E-1;-7.230489254E-1;7.776367188E0;3.423708439E0;8.527395022E0
7.225022000E-1;-5.841852427E-1;8.087613106E0;3.150769472E0;8.699316434E0
7.324281830E-1;-4.836287498E-1;8.269572258E0;3.131615877E0;8.855887313E0
7.423906740E-1;-3.926490843E-1;8.513781548E0;3.208230257E0;9.106667389E0
7.523634200E-1;-2.777273953E-1;8.820239067E0;3.327940464E0;9.431274433E0
7.623847930E-1;1.915361285E-1;8.825027466E0;3.514688015E0;9.501096132E0
7.724994790E-1;8.667010069E-1;8.786720276E0;3.840299606E0;9.628370834E0
7.824438220E-1;1.407790542E0;8.662221909E0;4.175487995E0;9.718573074E0
7.924039940E-1;1.537077546E0;8.451532364E0;4.510675907E0;9.702432881E0
8.023625800E-1;1.221042871E0;8.422801971E0;4.582501888E0;9.666119299E0
8.123903730E-1;7.278373241E-1;8.585607529E0;4.496310711E0;9.719013006E0
8.223527690E-1;4.118026793E-1;8.963891029E0;4.395754337E0;9.992175941E0
8.323784670E-1;3.399766386E-1;9.107542992E0;4.352658749E0;1.009992879E1
8.424848160E-1;3.543418646E-1;9.021351814E0;4.218583584E0;9.965279432E0
8.524779910E-1;4.740519226E-1;8.930372238E0;4.256890774E0;9.904412784E0
8.624755780E-1;5.554547906E-1;8.767566681E0;4.065354347E0;9.680178795E0
8.724293720E-1;7.230489254E-1;8.504204750E0;3.763684988E0;9.327894879E0
8.823992690E-1;1.029506683E0;8.303091049E0;3.620033026E0;9.116240677E0
8.923762170E-1;1.316810966E0;8.020575523E0;3.711012602E0;8.935056652E0
9.023591910E-1;1.297657371E0;8.092401505E0;3.615244627E0;8.957726859E0
9.124351780E-1;9.864110947E-1;8.245630264E0;3.519476414E0;9.019431220E0
9.224521720E-1;6.320692301E-1;8.695740700E0;3.184288263E0;9.281977676E0
9.324326690E-1;-1.867477298E-1;9.548076630E0;2.949656487E0;9.995054549E0
9.424034170E-1;-3.447650373E-1;9.337387085E0;2.647987127E0;9.711719535E0
9.524087910E-1;-4.596867263E-1;9.112331390E0;2.513911724E0;9.463912902E0
9.624939780E-1;-5.458779931E-1;9.576807022E0;1.924938202E0;9.783588432E0
9.724485720E-1;-6.512228847E-1;9.533711433E0;1.359906554E0;9.652206524E0
9.824128690E-1;-7.565677166E-1;9.605537415E0;9.385270476E-1;9.680887188E0
9.924040170E-1;-5.315127969E-1;9.423578262E0;5.075707436E-1;9.452193459E0
1.002388591E0;-3.447650373E-1;9.643844604E0;2.298433632E-1;9.652742080E0
1.012552378E0;-3.543418646E-1;9.739612579E0;-1.771709323E-1;9.747666433E0
1.022527772E0;-2.968810201E-1;9.849745750E0;-9.097966552E-1;9.896128518E0
1.032449969E0;-2.442085743E-1;9.701305389E0;-1.551442742E0;9.827611036E0
1.042407567E0;-1.388636976E-1;9.648633003E0;-2.039859772E0;9.862881417E0
1.052437366E0;-9.576806426E-2;9.672574997E0;-2.571372509E0;1.000898772E1
1.062404766E0;1.580173075E-1;9.696516991E0;-2.820369720E0;1.009959883E1
1.072382466E0;6.703764796E-1;9.658209801E0;-2.279279947E0;9.946131824E0
1.082373316E0;7.757213712E-1;9.730035782E0;-1.312022567E0;9.848692460E0
1.092443241E0;8.044517636E-1;9.528923035E0;-7.182604820E-2;9.563089241E0
1.102432703E0;6.416460276E-1;9.634267807E0;9.145850539E-1;9.698829394E0
1.112437934E0;5.123591423E-1;9.572018623E0;1.618480325E0;9.721395526E0
1.122407050E0;3.351882398E-1;9.514557838E0;2.030282974E0;9.734537019E0
1.132403108E0;9.576806426E-2;9.567230225E0;2.360682964E0;9.854637982E0
1.142401637E0;-7.661445439E-2;9.782708168E0;2.738966703E0;1.015919227E1
1.152406901E0;-1.115697980E0;9.907206535E0;7.714118004E0;1.260575820E1
1.162445033E0;6.224924326E-2;9.911994934E0;1.651999116E0;1.004891136E1
1.172462599E0;5.602431893E-1;9.902418137E0;8.188169599E-1;9.951995709E0
1.182438382E0;3.543418646E-1;9.461885452E0;-2.250549644E-1;9.471192333E0
1.192394774E0;1.101332754E-1;9.514557838E0;-1.695094824E0;9.665003190E0
1.202384470E0;2.968810201E-1;9.586383820E0;-2.135627985E0;9.825874005E0
1.212468318E0;5.650315881E-1;9.634267807E0;-1.570596337E0;9.777788591E0
1.222488242E0;6.655880809E-1;9.653421402E0;-3.830722570E-1;9.683919486E0
1.232420204E0;4.788403511E-1;9.706093788E0;6.368576288E-1;9.738743879E0
1.242388185E0;9.576806799E-3;9.749189377E0;1.144428372E0;9.816134755E0
1.252362675E0;-3.926490843E-1;9.797073364E0;1.115697980E0;9.868211681E0
1.262373420E0;-5.027823448E-1;9.706093788E0;6.033388376E-1;9.737816206E0
1.272396293E0;-1.723825186E-1;9.557653427E0;1.532289088E-1;9.560435862E0
1.282415729E0;2.298433632E-1;9.581595421E0;-1.340752989E-1;9.585289509E0
1.292389447E0;4.836287498E-1;9.591172218E0;-1.388636976E-1;9.604361739E0
1.302478806E0;2.121262789E0;1.030464458E1;-1.149216816E-1;1.052134320E1
1.312475986E0;3.399766386E-1;9.088389397E0;4.692635238E-1;9.106844360E0
1.322413576E0;-4.118026793E-1;9.562441826E0;8.714894056E-1;9.610898444E0
1.332406371E0;-4.070142806E-1;1.000297451E1;1.091755986E0;1.007060529E1
1.342414768E0;3.351882473E-2;1.001733971E1;1.063025594E0;1.007364094E1
1.352451967E0;6.607996821E-1;9.940725327E0;7.038952708E-1;9.987499426E0
1.362411066E0;7.565677166E-1;9.782708168E0;2.250549644E-1;9.814500677E0
1.372459116E0;5.698199868E-1;9.600749016E0;4.788403399E-3;9.617645211E0
1.382418141E0;3.782838583E-1;9.447520256E0;-4.788403213E-2;9.455211819E0
1.392405653E0;1.244984865E-1;9.346963882E0;2.968810201E-1;9.352506190E0
1.402380409E0;4.309562966E-2;9.289502144E0;9.624691010E-1;9.339328353E0
1.412382287E0;3.016694188E-1;9.275136948E0;1.321599364E0;9.373675625E0
1.422368726E0;6.655880809E-1;9.356540680E0;1.254561663E0;9.463708890E0
1.432452946E0;6.943184733E-1;9.394847870E0;3.351882398E-1;9.426430703E0
1.442612556E0;6.416460276E-1;9.332598686E0;-8.236053586E-1;9.390816453E0
1.452624861E0;2.154781520E-1;9.337387085E0;-9.624691010E-1;9.389333053E0
1.462676513E0;-1.484405100E-1;9.442731857E0;1.867477298E-1;9.445744768E0
1.472723339E0;-1.675941199E-1;9.394847870E0;-2.154781520E-1;9.398812963E0
1.482801252E0;-6.320692301E-1;9.284713745E0;-5.075707436E-1;9.320034812E0
1.492616209E0;-6.703764796E-1;9.332598686E0;-1.867477298E-1;9.358508299E0
1.502522687E0;-7.661445141E-1;9.591172218E0;3.639186621E-1;9.628603156E0
1.512458926E0;-9.528923035E-1;9.586383820E0;7.278373241E-1;9.661082012E0
1.522409046E0;-7.086837292E-1;9.538499832E0;9.911994934E-1;9.616012069E0
1.532430606E0;-3.112462163E-1;9.504981041E0;6.177040339E-1;9.530115271E0
1.542448386E0;2.442085743E-1;9.437943459E0;6.703764945E-2;9.441340403E0
1.552495776E0;8.906430602E-1;9.466673851E0;-3.782838583E-1;9.516000081E0
1.562594971E0;1.168370485E0;9.380482674E0;-7.469909191E-1;9.482433243E0
1.572468068E0;9.768342972E-1;9.251194954E0;-8.523358107E-1;9.341589247E0
1.582430117E0;5.315127969E-1;9.040505409E0;-4.740519226E-1;9.068515266E0
1.592402641E0;2.873041928E-1;8.777143478E0;3.399766386E-1;8.788422808E0
1.602377903E0;2.873041928E-1;8.470685959E0;1.053448796E0;8.540773892E0
1.612421534E0;4.309562966E-2;8.394071579E0;1.412579060E0;8.512207382E0
1.622385350E0;3.639186621E-1;8.264783859E0;9.241618514E-1;8.324251568E0
1.632393758E0;5.985504389E-1;8.346187592E0;1.963245422E-1;8.369925523E0
1.642382462E0;8.331822157E-1;8.312667847E0;-6.416460276E-1;8.378922900E0
1.652376814E0;9.768342972E-1;8.255207062E0;-9.720458984E-1;8.369439772E0
1.662466990E0;1.034295082E0;8.288725853E0;-6.081272364E-1;8.375115600E0
1.672447078E0;9.433154464E-1;8.259995461E0;-1.292868853E-1;8.314690862E0
1.682406622E0;6.751648784E-1;8.073247910E0;-3.351882473E-2;8.101500042E0
1.692364894E0;4.644751251E-1;8.116343498E0;2.777273953E-1;8.134365460E0
1.702354530E0;5.506663918E-1;8.125920296E0;7.038952708E-1;8.174917900E0
1.712412348E0;7.086837292E-1;8.087613106E0;5.458779931E-1;8.136934383E0
1.722423257E0;8.379706144E-1;8.020575523E0;4.309562966E-2;8.064346453E0
1.732394711E0;9.816226959E-1;8.116343498E0;-5.027823448E-1;8.190934317E0
1.742368938E0;9.624691010E-1;8.245630264E0;-9.672574997E-1;8.357771970E0
1.752411552E0;8.092401624E-1;8.403648376E0;-1.187524080E0;8.525631303E0
1.762424359E0;5.123591423E-1;8.518569946E0;-1.077390790E0;8.601704292E0
1.772374762E0;2.059013397E-1;8.504204750E0;-9.050082564E-1;8.554702434E0
1.782378464E0;2.968810201E-1;8.418013573E0;-1.077390790E0;8.491870334E0
1.792518815E0;4.213795066E-1;8.633491516E0;-1.106121182E0;8.714255018E0
1.802488990E0;3.112462163E-1;8.954314232E0;-9.385270476E-1;9.008743008E0
1.812485578E0;2.298433632E-1;9.342175484E0;-7.134721279E-1;9.372198953E0
1.822416372E0;1.915361285E-1;9.658209801E0;-7.182605267E-1;9.686774532E0
1.832408769E0;4.644751251E-1;9.950302124E0;-1.082179189E0;1.001974856E1
1.842537467E0;6.129156351E-1;1.023760605E1;-1.259350061E0;1.033296694E1
1.852458316E0;5.841852427E-1;1.038604736E1;-1.508347034E0;1.051124936E1
1.862402741E0;4.884171486E-1;1.050575733E1;-2.130839586E0;1.073079521E1
1.872455453E0;4.118026793E-1;1.080263805E1;-2.054224968E0;1.100392705E1
1.882419309E0;4.979939461E-1;1.142991924E1;-1.709460020E0;1.156777011E1
1.892399737E0;7.230489254E-1;1.188002872E1;-1.465251446E0;1.199186575E1
1.902379951E0;1.110909581E0;1.210029507E1;-1.139639974E0;1.220450901E1
1.912382558E0;1.091755986E0;1.249773312E1;-8.571242094E-1;1.257457459E1
1.922437862E0;1.134851575E0;1.301488018E1;-1.321599364E0;1.313094129E1
1.932399014E0;1.278503656E0;1.357991219E1;-2.025494576E0;1.378953280E1
1.942381590E0;1.110909581E0;1.416409683E1;-2.389413357E0;1.440711822E1
1.952447378E0;1.331176162E0;1.478180122E1;-2.413355350E0;1.503655417E1
1.962531272E0;1.398213744E0;1.550963879E1;-2.470816135E0;1.576733425E1
1.972441219E0;1.374271750E0;1.623268700E1;-2.829946518E0;1.653473154E1
1.982413692E0;1.335964561E0;1.753992081E1;-2.398990154E0;1.775355674E1
1.992459429E0;6.655880809E-1;1.946964836E1;-1.417367458E0;1.953251508E1
2.002476297E0;3.447650373E-1;2.162442970E1;-5.746083856E-1;2.163480986E1
2.012425231E0;8.331822157E-1;2.322375679E1;-9.002198577E-1;2.325612753E1
2.022395198E0;1.149216771E0;2.354936790E1;-2.422932148E0;2.370156172E1
2.032375682E0;1.958456993E0;2.269703293E1;-3.605667830E0;2.306494522E1
2.042358424E0;2.509123325E0;2.171541023E1;-4.165910721E0;2.225330433E1
2.052359295E0;3.327940464E0;2.070984459E1;-4.922478676E0;2.154538575E1
2.062358730E0;3.653551817E0;2.022142792E1;-4.841075897E0;2.111138564E1
2.072361448E0;3.371036053E0;2.026452255E1;-4.620809078E0;2.105627305E1
2.082418807E0;2.638410330E0;2.067153740E1;-4.017470360E0;2.122295304E1
2.092387486E0;1.934514999E0;2.138979721E1;-2.667140722E0;2.164207505E1
2.102376326E0;1.968033791E0;2.081040192E1;-1.948880196E0;2.099390671E1
2.112392746E0;2.327163935E0;1.912488365E1;-1.498770237E0;1.932416050E1
2.122366456E0;9.720458984E-1;1.645295334E1;2.475604534E0;1.666652827E1
2.132429811E0;-9.911994934E-1;1.208592987E1;4.965574265E0;1.310378209E1
2.142412988E0;-1.048660398E0;7.910442352E0;3.409343243E0;8.677465539E0
2.152387577E0;1.005564705E-1;3.691859007E0;7.565677166E-1;3.769924302E0
2.162375871E0;5.698199868E-1;1.307234168E0;1.517923832E0;2.082702270E0
2.172406018E0;-2.523488522E0;-9.097966552E-2;6.454767704E0;6.931110858E0
2.182378592E0;-5.061342239E0;-4.836287498E-1;8.829815865E0;1.018904953E1
2.192389379E0;-7.230489254E-1;-7.948749661E-1;8.169015884E0;8.239383865E0
2.202368272E0;3.500322819E0;-1.235408068E0;5.430049419E0;6.577532184E0
2.212403219E0;4.908113480E0;-1.589749932E0;6.081272364E-1;5.194872617E0
2.222377692E0;5.559336185E0;-5.506663918E-1;-2.427720547E0;6.091246125E0
2.232394929E0;4.520252705E0;6.224924326E-1;-2.059013367E0;5.005968177E0
2.242372047E0;2.274491549E0;-1.340752989E-1;-1.513135433E0;2.735117334E0
2.252383106E0;-3.399766386E-1;-6.081272364E-1;-1.532289088E-1;7.133596210E-1
2.262466136E0;-2.312798738E0;-4.788403399E-3;2.542642117E0;3.437163055E0
2.272407651E0;-2.959233284E0;7.757213712E-1;3.624821424E0;4.743219965E0
2.282382908E0;-1.853112102E0;8.810662031E-1;1.029506683E0;2.295688595E0
2.292421037E0;-4.884171486E-1;1.436520964E-1;-3.260902643E0;3.300405018E0
2.302429101E0;4.501099288E-1;-7.469909191E-1;-4.027047157E0;4.120400853E0
2.312429633E0;-3.734954596E-1;-7.038952708E-1;-3.179499865E0;3.277832637E0
2.322462399E0;-1.709460020E0;2.346317619E-1;-2.643198729E0;3.156549563E0
2.332424782E0;-2.169146776E0;7.182605267E-1;-2.624045134E0;3.479469612E0
2.342412974E0;-2.312798738E0;8.140285611E-1;-1.996764183E0;3.162079649E0
2.352486570E0;-2.566584110E0;1.029506683E0;-7.757213712E-1;2.872104046E0
2.362526368E0;-2.303221941E0;9.720458984E-1;3.926490843E-1;2.530588438E0
2.372491767E0;-1.848323703E0;6.416460276E-1;8.140285611E-1;2.119116003E0
2.382429966E0;-9.097966552E-1;3.974374831E-1;4.022258818E-1;1.071201273E0
2.392474566E0;4.692635238E-1;1.628057212E-1;-4.405331016E-1;6.639151837E-1
2.402474866E0;1.244984865E0;9.576806799E-3;-1.110909581E0;1.668591960E0
2.412471016E0;1.283292055E0;-6.224924326E-2;-1.331176162E0;1.850065794E0
2.422413591E0;5.841852427E-1;7.182604820E-2;-9.097966552E-1;1.083587252E0
2.432416878E0;5.841852427E-1;5.746083856E-1;-3.351882473E-2;8.201040825E-1
2.442397522E0;-4.070142806E-1;1.019929886E0;4.501099288E-1;1.186809397E0
2.452416344E0;-3.878606856E-1;1.474828243E0;6.895300746E-1;1.673620621E0
2.462420755E0;7.182604820E-2;1.723825216E0;-4.309562966E-2;1.725859088E0
2.472420460E0;5.075707436E-1;2.159569979E0;-1.197100878E0;2.520797704E0
2.482386813E0;9.720458984E-1;3.356670856E0;-3.830722570E-1;3.515516580E0
2.492361489E0;1.513135433E0;5.147533417E0;4.740519226E-1;5.386223570E0
2.502395327E0;2.370259762E0;7.441178799E0;-1.714248419E0;7.995493787E0
2.512404746E0;2.461239338E0;1.130542088E1;-1.632845521E0;1.168488018E1
2.522415456E0;9.193734527E-1;1.703713989E1;2.825158119E0;1.729424476E1
2.532465311E0;-4.309562966E-2;2.207453918E1;2.887407303E0;2.226262020E1
2.542416238E0;9.959878922E-1;2.403778458E1;-1.508347034E0;2.410564643E1
2.552400702E0;-1.829170108E0;2.592920494E1;-1.920149803E0;2.606446829E1
2.562369434E0;5.123591423E-1;3.126348495E1;2.647987127E0;3.137960865E1
2.572354800E0;7.517793179E0;2.938164330E1;-2.284068346E0;3.041406164E1
2.582384483E0;2.738966703E0;2.521094322E1;-8.355764389E0;2.670041938E1
2.592437824E0;-5.568912983E0;2.494758224E1;4.070142746E0;2.588359932E1
2.602393995E0;-7.163451672E0;2.405693817E1;1.201889229E1;2.782993147E1
2.612449580E0;-9.337386489E-1;1.837789154E1;-8.264783859E0;2.017239246E1
2.622429873E0;2.906560898E0;1.454238129E1;-1.499249077E1;2.108799965E1
2.632396519E0;3.342305660E0;1.214817905E1;-6.904877663E0;1.436755362E1
2.642377842E0;2.384624958E0;1.045308495E1;-3.232172251E0;1.119823015E1
2.652412504E0;1.924938202E0;9.797073364E0;-2.269703150E0;1.023912037E1
2.662463335E0;6.129156351E-1;1.076911926E1;-2.384624958E0;1.104699196E1
2.672489750E0;2.250549644E-1;1.232056236E1;-1.833958507E0;1.245834301E1
2.682428458E0;2.681505978E-1;1.339795303E1;-1.326387763E0;1.346611877E1
2.692457812E0;-2.777273953E-1;1.459026527E1;7.278373241E-1;1.461104789E1
2.702435489E0;1.101332754E-1;1.525585365E1;2.078166962E0;1.539714188E1
2.712445327E0;1.216254473E0;1.485362720E1;7.948749661E-1;1.492452151E1
2.722380746E0;1.776497602E0;1.315374374E1;-2.140416384E0;1.344463836E1
2.732364456E0;1.460463047E0;1.165497398E1;-3.960009575E0;1.239568662E1
2.742387311E0;7.182605267E-1;1.066377449E1;-3.222595453E0;1.116320322E1
2.752593738E0;-1.149216816E-1;9.998186111E0;-1.604115129E0;1.012670321E1
2.762512952E0;-8.379706144E-1;9.562441826E0;-1.723825186E-1;9.600635612E0
2.772470059E0;-1.192312479E0;9.284713745E0;5.746083856E-1;9.378576287E0
2.782872612E0;-1.125274777E0;9.141061783E0;2.633621991E-1;9.213827299E0
2.792613389E0;-5.506663918E-1;9.054870605E0;-5.506663918E-1;9.088297345E0
2.802647277E0;2.394201756E-1;8.925583839E0;-8.906430602E-1;8.973105034E0
2.812564221E0;6.320692301E-1;8.724471092E0;-7.134721279E-1;8.776385921E0
2.822530693E0;4.979939461E-1;8.480262756E0;-3.256114423E-1;8.501110351E0
2.832514929E0;1.963245422E-1;8.456320763E0;5.267243832E-2;8.458763417E0
2.842466047E0;9.576806426E-2;8.470685959E0;3.926490843E-1;8.480322249E0
2.852744606E0;-2.873042040E-2;8.379706383E0;3.926490843E-1;8.388949744E0
2.862620886E0;-7.661445439E-2;8.264783859E0;2.968810201E-1;8.270469174E0
2.872801526E0;-1.580173075E-1;8.169015884E0;2.825157940E-1;8.175426910E0
2.882636346E0;-1.292868853E-1;8.259995461E0;4.548983276E-1;8.273522381E0
2.892518256E0;-2.154781520E-1;8.259995461E0;4.979939461E-1;8.277798851E0
2.902879711E0;-2.442085743E-1;8.216899872E0;2.489969730E-1;8.224298196E0
2.912791938E0;-2.059013397E-1;8.264783859E0;1.197100878E-1;8.268214929E0
2.922609552E0;-8.619125932E-2;8.360552788E0;-1.340752989E-1;8.362071994E0
2.932513359E0;2.394201607E-2;8.619126320E0;-4.740519226E-1;8.632186106E0
2.942498262E0;9.576806426E-2;9.011775017E0;-4.548983276E-1;9.023757142E0
2.952557214E0;2.106897533E-1;9.294290543E0;-4.644751251E-1;9.308273954E0
2.962529190E0;2.777273953E-1;9.562441826E0;-7.038952708E-1;9.592335207E0
2.972628678E0;1.771709323E-1;9.643844604E0;-7.613561153E-1;9.675473706E0
2.982548422E0;-9.576806426E-2;9.696516991E0;-4.979939461E-1;9.709768856E0
2.992514294E0;-4.884171486E-1;9.763554573E0;-2.106897533E-1;9.778033513E0
3.002797230E0;-6.991068721E-1;1.010353088E1;1.197100878E-1;1.012839658E1
3.012633698E0;-5.650315881E-1;1.028549004E1;2.011129409E-1;1.030296134E1
3.022511932E0;-1.340752989E-1;1.030464458E1;-2.394201607E-2;1.030554460E1
3.032478049E0;-2.681505978E-1;1.012268448E1;-2.059013397E-1;1.012832865E1
3.042438107E0;-1.149216816E-1;9.955090523E0;3.351882473E-2;9.955810254E0
3.052432136E0;-9.576806426E-2;9.763554573E0;9.576806426E-2;9.764493891E0
3.062427651E0;2.873042040E-2;9.548076630E0;2.442085743E-1;9.551242358E0
3.072383908E0;1.388636976E-1;9.284713745E0;1.915361360E-2;9.285771875E0
3.082371537E0;1.867477298E-1;9.145850182E0;-4.979939461E-1;9.161301667E0
3.092390351E0;4.453215301E-1;9.174580574E0;-6.655880809E-1;9.209465102E0
3.102379758E0;5.506663918E-1;9.193734169E0;-4.501099288E-1;9.221202763E0
3.112419462E0;7.422025204E-1;9.198522568E0;-2.825157940E-1;9.232740502E0
3.122381814E0;7.134721279E-1;9.217676163E0;-2.681505978E-1;9.249135152E0
3.132384490E0;3.734954596E-1;9.342175484E0;-4.596867263E-1;9.360932299E0
3.142365828E0;1.484405100E-1;9.514557838E0;-2.681505978E-1;9.519493169E0
3.152363497E0;8.140286058E-2;9.739612579E0;1.532289088E-1;9.741157976E0
3.162361831E0;5.746084079E-2;9.844957352E0;3.064578176E-1;9.849893573E0
3.172366998E0;-3.830722719E-2;9.835380554E0;1.675941199E-1;9.836882935E0
3.182396082E0;-1.675941199E-1;9.787496567E0;-2.011129409E-1;9.790997051E0
3.192422124E0;-9.576806426E-2;9.677363396E0;-4.501099288E-1;9.688298755E0
3.202386645E0;-4.596867263E-1;9.907206535E0;-2.873041928E-1;9.922025848E0
3.212477405E0;-1.130063176E0;9.859322548E0;2.394201756E-1;9.926762106E0
3.222474285E0;-1.340752989E-1;9.485827446E0;9.816226959E-1;9.537425315E0
3.232425725E0;1.244984865E-1;9.600749016E0;1.206677675E0;9.677083887E0
3.242380445E0;-8.619125932E-2;9.825803757E0;7.852981687E-1;9.857511938E0
3.252385305E0;-5.363011956E-1;9.763554573E0;6.224924326E-2;9.778470834E0
3.262372235E0;-6.224924326E-1;9.686940193E0;-3.112462163E-1;9.711909253E0
3.272362200E0;-4.501099288E-1;9.706093788E0;-3.782838583E-1;9.723885759E0
3.282354683E0;-3.303998411E-1;9.720458984E0;-3.734954596E-1;9.733241278E0
3.292349424E0;-3.351882398E-1;9.672574997E0;-1.628057212E-1;9.679750200E0
3.302355795E0;-3.399766386E-1;9.682151794E0;2.394201607E-2;9.688148466E0
3.312426980E0;1.053448766E-1;9.610325813E0;1.326387763E0;9.701997953E0
3.322417073E0;-3.064578176E-1;9.682151794E0;3.639186621E-1;9.693833945E0
3.332400619E0;-9.576806426E-2;9.682151794E0;9.576806426E-2;9.683099009E0
3.342423892E0;1.149216816E-1;9.634267807E0;5.793967843E-1;9.652358458E0
3.352411029E0;8.140286058E-2;9.581595421E0;6.751648784E-1;9.605698561E0
3.362380597E0;3.351882473E-2;9.662998199E0;7.661445141E-1;9.693380996E0
3.372447881E0;1.580173075E-1;9.672574997E0;9.576807022E-1;9.721153680E0
3.382391023E0;3.351882398E-1;9.615114212E0;1.077390790E0;9.681092055E0
3.392373594E0;5.315127969E-1;9.595960617E0;1.010353088E0;9.663631790E0
3.402365880E0;6.512228847E-1;9.461885452E0;9.193734527E-1;9.528725786E0
3.412424523E0;7.086837292E-1;9.490615845E0;6.847416759E-1;9.541639948E0
3.422441344E0;-1.436520964E-1;9.672574997E0;6.799532771E-1;9.697508930E0
3.432657755E0;-7.326257229E-1;9.753977776E0;7.900865674E-1;9.813310332E0
3.442507960E0;-7.757213712E-1;9.720458984E0;6.560112834E-1;9.773403569E0
3.452478563E0;-8.714894056E-1;9.715670586E0;1.819593310E-1;9.756375244E0
3.462496864E0;-7.613561153E-1;9.773131371E0;6.224924326E-2;9.802940115E0
3.472426015E0;-6.799532771E-1;9.911994934E0;1.628057212E-1;9.936623457E0
3.482388590E0;-7.038952708E-1;9.988609314E0;1.053448766E-1;1.001393440E1
3.492370878E0;-5.267243981E-1;9.945513725E0;5.267243832E-2;9.959591168E0
3.502378522E0;-2.442085743E-1;9.878476143E0;7.182604820E-2;9.881755295E0
3.512363844E0;-1.819593310E-1;9.844957352E0;7.661445439E-2;9.846936794E0
3.522366005E0;-1.867477298E-1;9.753977776E0;-9.097966552E-2;9.756189546E0
3.532400085E0;-9.097966552E-2;9.710882187E0;-2.106897533E-1;9.713593584E0
3.542378625E0;1.244984865E-1;9.768342972E0;-2.394201607E-2;9.769165651E0
3.553158895E0;4.788403399E-3;9.758766174E0;-1.819593310E-1;9.760463584E0
3.562775030E0;9.097966552E-2;9.806650162E0;-3.639186621E-1;9.813821961E0
3.572569598E0;9.097966552E-2;9.854534149E0;-4.453215301E-1;9.865010485E0
3.582496382E0;-3.830722719E-2;9.888052940E0;-4.118026793E-1;9.896698431E0
3.592431274E0;-2.106897533E-1;9.801861763E0;-3.016694188E-1;9.808765908E0
3.602404720E0;-3.495534360E-1;9.739612579E0;-1.723825186E-1;9.747407683E0
3.612390443E0;-8.379706144E-1;9.648633003E0;1.244984865E-1;9.685753118E0
3.622394804E0;-1.067813993E0;9.595960617E0;5.315127969E-1;9.669808309E0
3.632391985E0;-1.206677675E0;9.639056206E0;3.734954596E-1;9.721469766E0
3.642419075E0;-9.768342972E-1;9.787496567E0;4.548983276E-1;9.846635302E0
3.652405620E0;-6.081272364E-1;9.988609314E0;2.633621991E-1;1.001056914E1
3.662380893E0;-7.038952708E-1;9.916783333E0;3.926490843E-1;9.949484083E0
3.672527529E0;-6.847416759E-1;9.605537415E0;7.996633649E-1;9.663057574E0
3.682509847E0;-6.464344859E-1;9.409213066E0;1.326387763E0;9.524204563E0
3.692465506E0;-3.782838583E-1;9.265560150E0;1.996764183E0;9.485819457E0
3.702415336E0;-1.340752989E-1;9.002198219E0;2.604891539E0;9.372460130E0
3.712537251E0;-9.576806799E-3;8.877699852E0;2.925714493E0;9.347376727E0
3.722574208E0;2.298433632E-1;8.825027466E0;2.901772499E0;9.292697207E0
3.732481187E0;4.309563041E-1;8.944737434E0;2.849100113E0;9.397415738E0
3.742433676E0;5.937620401E-1;8.949525833E0;2.509123325E0;9.313552805E0
3.752484921E0;6.081272364E-1;8.987833023E0;1.786074519E0;9.183736896E0
3.762440543E0;6.655880809E-1;9.002198219E0;1.695094824E0;9.184548260E0
3.772526354E0;8.523358107E-1;8.944737434E0;2.130839586E0;9.234461622E0
3.782464760E0;8.475474119E-1;8.848969460E0;2.389413357E0;9.204992846E0
3.792437963E0;8.140285611E-1;8.743624687E0;2.571372509E0;9.150167854E0
3.802406064E0;7.613561153E-1;8.844181061E0;2.552218914E0;9.236504921E0
3.812468615E0;7.852981687E-1;8.877699852E0;2.700659513E0;9.312561929E0
3.822417390E0;4.548983276E-1;9.217676163E0;3.366247654E0;9.823650523E0
3.832723278E0;6.224924326E-1;8.772355080E0;3.495534420E0;9.463639435E0
3.842650722E0;1.326387763E0;8.556877136E0;4.850652695E0;9.925133873E0
3.852535944E0;1.063025594E0;8.714894295E0;5.779603004E0;1.051109970E1
3.862504555E0;7.374141216E-1;8.681375504E0;5.497087002E0;1.030184574E1
3.872451360E0;6.943184733E-1;8.748413086E0;5.267243862E0;1.023526588E1
3.882418263E0;5.506663918E-1;8.906430244E0;5.147533417E0;1.030169081E1
3.892456714E0;3.160346150E-1;8.997409821E0;5.128379822E0;1.036115539E1
3.902407440E0;3.064578176E-1;9.184157372E0;5.243301868E0;1.057992805E1
3.912386303E0;3.543418646E-1;9.174580574E0;5.027823448E0;1.046792699E1
3.922383234E0;5.171475410E-1;8.944737434E0;4.687847137E0;1.011195728E1
3.932375200E0;5.267243981E-1;8.868123055E0;4.357447147E0;9.894866889E0
3.942407183E0;4.501099288E-1;8.667010307E0;4.256890774E0;9.666477418E0
3.953811674E0;2.154781520E-1;8.365341187E0;4.012681961E0;9.280462301E0
3.963095920E0;-1.292868853E-1;8.274360657E0;3.859453201E0;9.131108278E0
3.972726043E0;-1.532289088E-1;8.360552788E0;3.629609823E0;9.115722104E0
3.982552104E0;8.619125932E-2;8.556877136E0;3.351882458E0;9.190358604E0
3.992504635E0;5.506663918E-1;8.475474358E0;3.059789658E0;9.027691389E0
4.002432400E0;7.757213712E-1;8.451532364E0;3.457227230E0;9.164200078E0
4.012736783E0;3.112462163E-1;8.671798706E0;4.007893562E0;9.558251818E0
4.022552974E0;-2.968810201E-1;8.968679428E0;4.367023945E0;9.979791940E0
4.032458070E0;-7.422025204E-1;9.030928612E0;4.529829502E0;1.013054251E1
4.042414618E0;-5.841852427E-1;9.035717010E0;4.357447147E0;1.004852228E1
4.052388892E0;-4.884171486E-1;9.212887764E0;4.218583584E0;1.014456996E1
4.062361029E0;-3.447650373E-1;8.853757858E0;4.108449936E0;9.766639751E0
4.072398097E0;1.915361360E-2;8.743624687E0;3.960009575E0;9.598594447E0
4.082399131E0;3.830722570E-1;8.777143478E0;3.888183594E0;9.607443138E0
4.092447648E0;5.746083856E-1;8.690952301E0;3.782838583E0;9.495930415E0
4.102409907E0;6.560112834E-1;8.532935143E0;3.806780815E0;9.366584923E0
4.112423536E0;6.320692301E-1;8.480262756E0;3.778050184E0;9.305268998E0
4.122393851E0;6.943184733E-1;8.331821442E0;3.936067581E0;9.240884951E0
4.132454508E0;8.714894056E-1;8.231265068E0;4.218583584E0;9.290299557E0
4.142390837E0;9.720458984E-1;8.259995461E0;4.673481941E0;9.540116964E0
4.152410001E0;9.193734527E-1;8.485051155E0;4.826710701E0;9.805023041E0
4.162426583E0;6.991068721E-1;8.561665535E0;4.735731125E0;9.809078267E0
4.172524374E0;5.458779931E-1;8.513781548E0;4.683058739E0;9.732086013E0
4.182459770E0;1.963245422E-1;8.494627953E0;4.630385876E0;9.676658552E0
4.192420968E0;-9.576806426E-2;8.494627953E0;4.817133904E0;9.765892413E0
4.202471067E0;-1.436520964E-1;8.518569946E0;4.620809078E0;9.692189969E0
4.212507616E0;-2.059013397E-1;8.508993149E0;4.390965939E0;9.577366112E0
4.222445391E0;-7.661445439E-2;8.465897560E0;4.261679173E0;9.478354321E0
4.232440778E0;1.580173075E-1;8.403648376E0;4.180276394E0;9.387277893E0
4.242512972E0;4.548983276E-1;8.279149055E0;4.165910721E0;9.279334766E0
4.252455069E0;5.027823448E-1;8.221688271E0;4.362235546E0;9.320839397E0
4.262398617E0;4.165911078E-1;8.183381081E0;4.812345505E0;9.502628232E0
4.272389391E0;2.394201756E-1;8.049305916E0;5.521028996E0;9.763729253E0
4.282410278E0;1.915361360E-2;8.030152321E0;5.875370979E0;9.950060166E0
4.292411722E0;1.915361360E-2;7.958326340E0;5.607220173E0;9.735309089E0
4.302385944E0;5.267243832E-2;7.891288757E0;5.200206280E0;9.450786104E0
4.312368555E0;2.011129409E-1;7.996633530E0;5.200206280E0;9.540898258E0
4.322361360E0;4.261679053E-1;8.039729118E0;5.200206280E0;9.584414887E0
4.332467763E0;6.129156351E-1;7.953537941E0;5.090072632E0;9.462730618E0
4.342445464E0;8.379706144E-1;7.824251175E0;5.224148273E0;9.445254172E0
4.352406315E0;1.029506683E0;7.733271599E0;5.482721806E0;9.535387356E0
4.362390240E0;1.292868972E0;7.762001991E0;5.588066578E0;9.651252415E0
4.372389203E0;1.450886250E0;7.699752808E0;5.640739441E0;9.654491475E0
4.382460684E0;1.479616642E0;7.675810814E0;5.659893036E0;9.650996127E0
4.392402425E0;1.383848548E0;7.647080421E0;5.554547787E0;9.552270771E0
4.402395795E0;1.235408068E0;7.728483200E0;5.473145008E0;9.550445118E0
4.412400480E0;1.149216771E0;7.762001991E0;5.573701382E0;9.624734863E0
4.422410823E0;1.029506683E0;7.723694801E0;5.760449409E0;9.690104375E0
4.432401494E0;9.385270476E-1;7.766790390E0;5.827486992E0;9.755176606E0
4.442379830E0;7.517793179E-1;7.733271599E0;5.851428986E0;9.726658364E0
4.452378998E0;6.320692301E-1;7.781155586E0;5.559336185E0;9.583950782E0
4.462619582E0;5.267243981E-1;7.781155586E0;5.339069843E0;9.451427810E0
4.472482874E0;5.698199868E-1;7.776367188E0;5.334281445E0;9.447282148E0
4.482459020E0;4.740519226E-1;7.752425194E0;5.530605793E0;9.534800577E0
4.492403593E0;3.495534360E-1;7.814674377E0;5.674258232E0;9.663774093E0
4.502413379E0;2.394201756E-1;7.867346764E0;5.803544998E0;9.779243410E0
4.512403772E0;4.357447028E-1;7.766790390E0;5.980715752E0;9.812332409E0
4.522378969E0;6.847416759E-1;7.714118004E0;6.086060524E0;9.849701541E0
4.532389067E0;9.672574997E-1;7.666234016E0;6.234501362E0;9.928531528E0
4.542461116E0;1.225831270E0;7.560888767E0;6.354211330E0;9.952170762E0
4.552426141E0;1.307234168E0;7.489062786E0;6.426037312E0;9.954339662E0
4.562415653E0;1.235408068E0;7.503427982E0;6.550535679E0;1.003679143E1
4.572386409E0;1.058237195E0;7.273584843E0;6.698976517E0;9.944907682E0
4.582719787E0;8.954314590E-1;7.192182064E0;6.794744492E0;9.934678306E0
4.592581476E0;7.996633649E-1;6.991068840E0;6.531382084E0;9.600700857E0
4.602499821E0;5.985504389E-1;6.895300865E0;6.210559368E0;9.299165786E0
4.612456993E0;5.075707436E-1;6.718130112E0;6.105214119E0;9.092004163E0
4.622491579E0;5.315127969E-1;6.512228489E0;5.985504150E0;8.861031863E0
4.632448372E0;4.884171486E-1;6.358999729E0;6.177040577E0;8.878696929E0
4.642394769E0;5.889736414E-1;6.382941723E0;6.253654957E0;8.955279745E0
4.652462467E0;1.067813993E0;6.545747280E0;6.325480938E0;9.165082830E0
4.662412816E0;1.671152830E0;6.833051682E0;6.540958881E0;9.605596814E0
4.672535991E0;2.001552582E0;7.038952827E0;6.928819656E0;1.007777810E1
4.682454578E0;1.972822189E0;7.163451672E0;7.043741226E0;1.023823020E1
4.692401372E0;1.661576033E0;7.259219646E0;6.746860504E0;1.004874278E1
4.702397269E0;1.015141487E0;7.311892033E0;6.493074894E0;9.831291823E0
4.712488717E0;5.410895944E-1;7.273584843E0;6.473921299E0;9.752408492E0
4.722405941E0;5.075707436E-1;7.158663273E0;6.421248913E0;9.629980556E0
4.732442053E0;5.267243981E-1;7.010222435E0;6.531382084E0;9.595812061E0
4.742414109E0;4.357447028E-1;6.947973251E0;6.574477673E0;9.575383147E0
4.752392637E0;3.064578176E-1;6.986280441E0;6.689399719E0;9.677298146E0
4.762374401E0;3.160346150E-1;7.053318024E0;6.641515732E0;9.693240131E0
4.772372283E0;4.165911078E-1;7.058106422E0;6.526593685E0;9.622205545E0
4.782379224E0;3.782838583E-1;6.943184853E0;6.368576527E0;9.429193049E0
4.792446695E0;2.825157940E-1;7.010222435E0;6.263231754E0;9.404844803E0
4.802426430E0;2.489969730E-1;7.053318024E0;6.311115742E0;9.467918279E0
4.812425298E0;3.016694188E-1;7.144298077E0;6.387730122E0;9.588279071E0
4.822439232E0;2.777273953E-1;7.235277653E0;6.454767704E0;9.700020687E0
4.832454199E0;3.687070608E-1;7.144298077E0;6.502651691E0;9.667544617E0
4.842418182E0;3.591302633E-1;7.125144482E0;6.521805286E0;9.665950684E0
4.852394174E0;4.118026793E-1;7.139509678E0;6.435614109E0;9.620774857E0
4.862433170E0;4.309563041E-1;7.168240070E0;6.153098583E0;9.456744219E0
4.872447168E0;5.985504389E-1;7.139509678E0;6.344634533E0;9.570018204E0
4.882426167E0;7.086837292E-1;7.101202011E0;6.234501362E0;9.476197015E0
4.892414166E0;8.236053586E-1;7.115567684E0;6.277596951E0;9.524591998E0
4.902401666E0;8.523358107E-1;7.101202011E0;6.330269337E0;9.551222760E0
4.912425916E0;8.523358107E-1;7.077260017E0;6.354211330E0;9.549350099E0
4.922404041E0;7.948749661E-1;7.086836815E0;6.239289761E0;9.475432390E0
4.932392603E0;8.092401624E-1;7.067683220E0;6.191405773E0;9.430828234E0
4.942434384E0;7.613561153E-1;7.053318024E0;6.358999729E0;9.527110571E0
4.952440275E0;6.416460276E-1;7.043741226E0;6.402095318E0;9.540064179E0
4.962436720E0;5.889736414E-1;7.043741226E0;6.277596951E0;9.453539225E0
4.972400943E0;6.177040339E-1;6.976703644E0;6.157886982E0;9.326066914E0
4.982384054E0;6.895300746E-1;6.995857239E0;6.157886982E0;9.345428953E0
4.992381610E0;7.230489254E-1;6.943184853E0;6.181828976E0;9.324463799E0
5.002381888E0;6.129156351E-1;6.991068840E0;6.229712963E0;9.384030728E0
5.012375527E0;5.506663918E-1;7.010222435E0;6.282385349E0;9.429465401E0
5.022381846E0;3.591302633E-1;7.024587631E0;6.129156113E0;9.329542357E0
5.032459506E0;4.261679053E-1;6.938396454E0;6.564900875E0;9.561427087E0
5.042456836E0;5.267243981E-1;6.957550049E0;6.517016888E0;9.547588721E0
5.052449501E0;5.889736414E-1;6.971915245E0;6.406883717E0;9.486972704E0
5.062433333E0;5.793967843E-1;7.024587631E0;6.196194172E0;9.384740499E0
5.072408749E0;4.884171486E-1;7.024587631E0;5.999869347E0;9.251043988E0
5.082392957E0;5.363011956E-1;6.967126846E0;5.856217384E0;9.117223125E0
5.092468061E0;5.219359994E-1;6.947973251E0;5.942408562E0;9.157454286E0
5.102422613E0;5.315127969E-1;7.043741226E0;6.181828976E0;9.386788897E0
5.112396889E0;8.044517636E-1;7.024587631E0;6.507440090E0;9.609305415E0
5.122400027E0;9.002198577E-1;6.962338448E0;6.517016888E0;9.578938436E0
5.132402596E0;9.337386489E-1;6.928819656E0;6.588842869E0;9.606938120E0
5.142424381E0;8.762778044E-1;6.809109688E0;6.627150536E0;9.542062762E0
5.152443773E0;8.092401624E-1;6.737283707E0;6.636727333E0;9.491681151E0
5.162458969E0;7.134721279E-1;6.780379295E0;6.569689274E0;9.468020016E0
5.172410567E0;6.272808313E-1;6.804321289E0;6.555324078E0;9.469136350E0
5.182406366E0;5.171475410E-1;6.866570473E0;6.636727333E0;9.563648955E0
5.192461766E0;5.027823448E-1;6.919242859E0;6.852205276E0;9.750970668E0
5.202436466E0;3.878606856E-1;6.971915245E0;6.967126846E0;9.864020204E0
5.212490316E0;6.607996821E-1;6.924031258E0;7.307103634E0;1.008824210E1
5.222465741E0;6.943184733E-1;6.833051682E0;7.331045628E0;1.004574056E1
5.232419953E0;6.416460276E-1;6.833051682E0;7.177816868E0;9.930929458E0
5.242417559E0;5.793967843E-1;6.924031258E0;6.924031258E0;9.809185407E0
5.252416862E0;6.272808313E-1;6.919242859E0;6.732495308E0;9.674497199E0
5.262383014E0;6.464344859E-1;6.833051682E0;6.569689274E0;9.501015208E0
5.272385590E0;5.889736414E-1;6.876147270E0;6.478709698E0;9.465831743E0
5.282380878E0;5.602431893E-1;6.871358871E0;6.507440090E0;9.480307047E0
5.292371022E0;5.650315881E-1;6.847416878E0;6.574477673E0;9.509476077E0
5.302353594E0;5.219359994E-1;6.794744492E0;6.526593685E0;9.435962856E0
5.313105880E0;4.165911078E-1;6.742072105E0;6.564900875E0;9.419501469E0
5.322764523E0;3.303998411E-1;6.718130112E0;6.636727333E0;9.449263778E0
5.332567844E0;3.112462163E-1;6.742072105E0;6.799532890E0;9.580504058E0
5.342461005E0;3.543418646E-1;6.732495308E0;6.919242859E0;9.660640402E0
5.352467085E0;4.932055473E-1;6.727706909E0;6.928819656E0;9.670255105E0
5.362445125E0;5.506663918E-1;6.684611320E0;6.914454460E0;9.633116965E0
5.372415645E0;5.793967843E-1;6.684611320E0;6.842628479E0;9.583386335E0
5.382395905E0;6.607996821E-1;6.751648903E0;6.761225700E0;9.577869915E0
5.392390035E0;6.655880809E-1;6.804321289E0;6.665457726E0;9.548304687E0
5.402402100E0;5.123591423E-1;6.938396454E0;6.469132900E0;9.500186194E0
5.412389133E0;8.475474119E-1;6.794744492E0;6.737283707E0;9.606137677E0
5.422382649E0;8.858546019E-1;6.794744492E0;6.871358871E0;9.704064294E0
5.432382907E0;6.847416759E-1;6.785167694E0;6.885724068E0;9.691262443E0
5.442366536E0;5.602431893E-1;6.737283707E0;6.885724068E0;9.649769951E0
5.452373851E0;4.884171486E-1;6.722918510E0;6.799532890E0;9.574436387E0
5.462378508E0;4.405331016E-1;6.660669327E0;6.684611320E0;9.446830887E0
5.472365337E0;3.926490843E-1;6.651092529E0;6.631938934E0;9.400735033E0
5.482370251E0;3.974374831E-1;6.655880928E0;6.646304131E0;9.414460477E0
5.492407208E0;3.926490843E-1;6.655880928E0;6.665457726E0;9.427791413E0
5.502418187E0;4.453215301E-1;6.675034523E0;6.746860504E0;9.501290639E0
5.512415676E0;4.548983276E-1;6.698976517E0;6.622362137E0;9.430742237E0
5.522421921E0;4.070142806E-1;6.813898087E0;6.344634533E0;9.319294776E0
5.532394543E0;6.943184733E-1;6.684611320E0;6.387730122E0;9.271957871E0
5.542365854E0;6.033388376E-1;6.698976517E0;6.296750546E0;9.213542834E0
5.552369010E0;4.836287498E-1;6.703764915E0;6.430825710E0;9.302143846E0
5.562382588E0;5.315127969E-1;6.713341713E0;6.794744492E0;9.566609405E0
5.572774877E0;6.320692301E-1;6.718130112E0;7.216124058E0;9.879535927E0
5.582632021E0;6.655880809E-1;6.665457726E0;7.422025204E0;9.997889393E0
5.592509093E0;6.799532771E-1;6.655880928E0;7.498639584E0;1.004951158E1
5.602464629E0;6.799532771E-1;6.675034523E0;7.278373241E0;9.899148417E0
5.612463897E0;5.219359994E-1;6.670246124E0;6.986280441E0;9.673299073E0
5.622448031E0;4.692635238E-1;6.703764915E0;6.732495308E0;9.512474198E0
5.632564098E0;3.878606856E-1;6.708553314E0;6.775590897E0;9.542733124E0
5.642451132E0;3.639186621E-1;6.775590897E0;6.809109688E0;9.612754212E0
5.652444149E0;4.022258818E-1;6.746860504E0;6.761225700E0;9.560129983E0
5.662467157E0;3.687070608E-1;6.722918510E0;6.694188118E0;9.494510664E0
5.672417161E0;4.070142806E-1;6.732495308E0;6.727706909E0;9.526499564E0
5.682405163E0;4.836287498E-1;6.655880928E0;6.631938934E0;9.408361267E0
5.692474664E0;5.746083856E-1;6.679822922E0;6.732495308E0;9.501405272E0
5.702436915E0;5.793967843E-1;6.670246124E0;6.852205276E0;9.580219264E0
5.712460540E0;5.410895944E-1;6.679822922E0;7.029376030E0;9.712102738E0
5.722452353E0;5.219359994E-1;6.675034523E0;7.058106422E0;9.728585166E0
5.732416759E0;3.926490843E-1;6.679822922E0;6.986280441E0;9.673795634E0
5.742454962E0;2.729389966E-1;6.689399719E0;6.880935669E0;9.600512485E0
5.752429564E0;2.681505978E-1;6.770802498E0;6.756437302E0;9.568966309E0
5.762393365E0;4.836287498E-1;6.780379295E0;5.875370979E0;8.984844145E0
5.772384265E0;8.619126081E-1;6.742072105E0;5.822698593E0;8.949985951E0
5.782477215E0;8.858546019E-1;6.823474884E0;6.100425720E0;9.195637109E0
5.792458190E0;8.906430602E-1;6.751648903E0;6.263231754E0;9.252355375E0
5.802418678E0;8.236053586E-1;6.665457726E0;6.368576527E0;9.255561542E0
5.812489422E0;7.326257229E-1;6.603208065E0;6.536170483E0;9.319904601E0
5.822410794E0;5.458779931E-1;6.631938934E0;6.919242859E0;9.599818673E0
5.832474480E0;5.363011956E-1;6.593631268E0;7.230489254E0;9.800181994E0
5.842450323E0;6.272808313E-1;6.607996464E0;7.316680431E0;9.878912442E0
5.852404744E0;6.081272364E-1;6.713341713E0;7.354987621E0;9.976703794E0
5.862441955E0;4.644751251E-1;6.689399719E0;7.216124058E0;9.850698055E0
5.872439560E0;4.548983276E-1;6.698976517E0;7.010222435E0;9.707030310E0
5.882539363E0;3.878606856E-1;6.655880928E0;6.900089264E0;9.594916294E0
5.892479764E0;4.309563041E-1;6.689399719E0;6.952761650E0;9.657882092E0
5.902412965E0;4.692635238E-1;6.799532890E0;6.904877663E0;9.702123031E0
5.912561565E0;4.979939461E-1;6.799532890E0;6.852205276E0;9.666145180E0
5.922466865E0;5.937620401E-1;6.722918510E0;6.828263283E0;9.600800285E0
5.932515015E0;6.655880809E-1;6.727706909E0;6.866570473E0;9.636121513E0
5.942440090E0;6.224924326E-1;6.713341713E0;6.995857239E0;9.715887622E0
5.952393628E0;5.267243981E-1;6.703764915E0;6.967126846E0;9.682910674E0
5.962437897E0;7.038952708E-1;6.722918510E0;6.689399719E0;9.510056280E0
5.972484531E0;9.481038451E-1;6.646304131E0;6.320692539E0;9.220814155E0
5.996301475E0;7.182605267E-1;6.426037312E0;6.833051682E0;9.407467725E0
6.029763975E0;9.385270476E-1;6.512228489E0;6.665457726E0;9.365803735E0
6.051351725E0;8.188169599E-1;6.488286495E0;6.789956093E0;9.427185508E0
6.067200600E0;6.895300746E-1;6.497863293E0;7.048529625E0;9.611422838E0
6.080084037E0;6.129156351E-1;6.493074894E0;7.225700855E0;9.733778301E0
6.091514756E0;6.703764796E-1;6.483498096E0;7.335834026E0;9.813236625E0
6.102267615E0;7.757213712E-1;6.426037312E0;7.230489254E0;9.704415182E0
6.112616545E0;7.852981687E-1;6.402095318E0;7.105990410E0;9.596802456E0
6.122796510E0;7.469909191E-1;6.373364925E0;6.943184853E0;9.454395369E0
6.132855992E0;7.469909191E-1;6.368576527E0;6.785167694E0;9.335698316E0
6.142901233E0;7.278373241E-1;6.454767704E0;6.684611320E0;9.320826240E0
6.152973354E0;7.948749661E-1;6.536170483E0;6.607996464E0;9.328395792E0
6.162969914E0;7.613561153E-1;6.502651691E0;6.665457726E0;9.343043875E0
6.172974194E0;7.134721279E-1;6.521805286E0;6.818686485E0;9.462424217E0
6.183031834E0;7.086837292E-1;6.540958881E0;6.952761650E0;9.572213447E0
6.193054654E0;6.512228847E-1;6.502651691E0;6.971915245E0;9.555949584E0
6.203000064E0;6.512228847E-1;6.493074894E0;6.938396454E0;9.524991243E0
6.213054769E0;7.038952708E-1;6.521805286E0;6.957550049E0;9.562265183E0
6.223072622E0;8.140285611E-1;6.540958881E0;7.019799232E0;9.629349243E0
6.233020048E0;8.188169599E-1;6.517016888E0;7.105990410E0;9.676624930E0
6.242979261E0;7.661445141E-1;6.488286495E0;7.048529625E0;9.610754858E0
6.253028868E0;7.661445141E-1;6.421248913E0;7.005434036E0;9.533914257E0
6.263085671E0;7.900865674E-1;6.392518520E0;6.928819656E0;9.460289195E0
6.273093573E0;7.565677166E-1;6.378153324E0;6.852205276E0;9.391802366E0
6.283120524E0;8.044517636E-1;6.411672115E0;6.718130112E0;9.321478110E0
6.293076999E0;8.092401624E-1;6.430825710E0;6.641515732E0;9.280092681E0
6.302997237E0;8.044517636E-1;6.473921299E0;6.799532890E0;9.422974432E0
6.313002356E0;8.092401624E-1;6.507440090E0;6.900089264E0;9.519079683E0
6.322971415E0;8.140285611E-1;6.545747280E0;7.005434036E0;9.622138847E0
6.332949445E0;8.523358107E-1;6.517016888E0;7.048529625E0;9.637414348E0
6.343028460E0;8.762778044E-1;6.550535679E0;7.019799232E0;9.641315353E0
6.353088967E0;7.852981687E-1;6.526593685E0;7.038952827E0;9.631198017E0
6.363070721E0;7.852981687E-1;6.526593685E0;7.129932880E0;9.697889524E0
6.373010098E0;8.619126081E-1;6.502651691E0;7.149086475E0;9.702412576E0
6.383024286E0;8.954314590E-1;6.473921299E0;7.077260017E0;9.633330880E0
6.392999380E0;9.097966552E-1;6.440402508E0;6.962338448E0;9.527889120E0
6.402959427E0;8.714894056E-1;6.411672115E0;6.876147270E0;9.441950772E0
6.412974951E0;8.283938169E-1;6.454767704E0;6.837840080E0;9.439614367E0
6.423073713E0;8.140285611E-1;6.478709698E0;6.852205276E0;9.465148652E0
6.433076594E0;6.991068721E-1;6.469132900E0;6.924031258E0;9.501612482E0
6.443039034E0;6.607996821E-1;6.435614109E0;6.947973251E0;9.493582963E0
6.453032754E0;7.565677166E-1;6.416460514E0;7.000645638E0;9.526405386E0
6.463050114E0;7.805097699E-1;6.406883717E0;7.077260017E0;9.578359140E0
6.473014294E0;7.900865674E-1;6.421248913E0;7.010222435E0;9.539386404E0
6.483672884E0;8.379706144E-1;6.435614109E0;6.919242859E0;9.486582390E0
6.493443179E0;8.427590132E-1;6.430825710E0;6.885724068E0;9.459331795E0
6.503177327E0;8.571242094E-1;6.430825710E0;6.919242859E0;9.485046282E0
6.513123901E0;8.283938169E-1;6.497863293E0;6.928819656E0;9.535040929E0
6.523044188E0;9.145850539E-1;6.512228489E0;6.837840080E0;9.486919557E0
6.533013831E0;8.954314590E-1;6.512228489E0;6.770802498E0;9.436878926E0
6.542980653E0;8.427590132E-1;6.493074894E0;6.794744492E0;9.436038207E0
6.552961064E0;7.852981687E-1;6.521805286E0;6.904877663E0;9.530371081E0
6.563583269E0;8.858546019E-1;6.560112476E0;6.967126846E0;9.610445909E0
6.573286372E0;8.762778044E-1;6.521805286E0;7.000645638E0;9.607853367E0
6.583121423E0;7.805097699E-1;6.507440090E0;6.971915245E0;9.568885735E0
6.593058949E0;7.757213712E-1;6.488286495E0;6.995857239E0;9.572963167E0
6.603478212E0;7.757213712E-1;6.555324078E0;7.005434036E0;9.625493413E0
6.613217843E0;8.092401624E-1;6.579266071E0;7.000645638E0;9.641091796E0
6.623145159E0;7.852981687E-1;6.507440090E0;6.943184853E0;9.548365600E0
6.633061817E0;6.703764796E-1;6.421248913E0;6.967126846E0;9.498562982E0
6.643036146E0;5.410895944E-1;6.392518520E0;7.062894821E0;9.541569799E0
6.653447810E0;5.793967843E-1;6.430825710E0;7.029376030E0;9.544807349E0
6.663905642E0;6.512228847E-1;6.445190907E0;6.991068840E0;9.530982142E0
6.673423558E0;6.512228847E-1;6.445190907E0;6.967126846E0;9.513434372E0
6.683227016E0;5.171475410E-1;6.459556103E0;6.330269337E0;9.059007479E0
6.693107245E0;8.475474119E-1;6.435614109E0;6.588842869E0;9.249233262E0
6.703026860E0;9.289502501E-1;6.550535679E0;6.861782074E0;9.531868625E0
6.712980667E0;7.805097699E-1;6.617573261E0;7.115567684E0;9.748475513E0
6.722953571E0;6.033388376E-1;6.622362137E0;7.144298077E0;9.760158453E0
6.733022023E0;5.650315881E-1;6.540958881E0;7.053318024E0;9.636010530E0
6.743041749E0;6.081272364E-1;6.550535679E0;6.962338448E0;9.578804366E0
6.753043112E0;6.799532771E-1;6.569689274E0;6.971915245E0;9.603684491E0
6.763015293E0;7.709329724E-1;6.488286495E0;6.943184853E0;9.534149946E0
6.773024384E0;8.475474119E-1;6.445190907E0;6.928819656E0;9.500913865E0
6.783152929E0;8.379706144E-1;6.378153324E0;6.847416878E0;9.395219661E0
6.793300702E0;6.943184733E-1;6.421248913E0;6.813898087E0;9.388488849E0
6.803170588E0;8.331822157E-1;6.397306919E0;6.655880928E0;9.269330038E0
6.813098031E0;9.337386489E-1;6.488286495E0;6.698976517E0;9.372620545E0
6.823018253E0;9.097966552E-1;6.574477673E0;6.833051682E0;9.525863840E0
