"Time (s)";"Acceleration x (m/s^2)";"Acceleration y (m/s^2)";"Acceleration z (m/s^2)";"Absolute acceleration (m/s^2)"
3.187002800E-2;1.872265697E0;6.809109688E0;6.483498096E0;9.586714826E0
5.352952800E-2;1.307234168E0;6.933608055E0;6.804321289E0;9.802171700E0
6.976977800E-2;1.441309452E0;6.785167694E0;6.852205276E0;9.750312340E0
8.244040300E-2;1.307234168E0;6.727706909E0;7.010222435E0;9.803780904E0
9.380871500E-2;1.144428372E0;6.804321289E0;7.058106422E0;9.870429108E0
1.044783710E-1;1.005564690E0;6.904877663E0;6.933608055E0;9.836839764E0
1.148056990E-1;1.010353088E0;6.900089264E0;6.698976517E0;9.669970609E0
1.249628630E-1;1.067813993E0;6.943184853E0;6.354211330E0;9.472277670E0
1.350419450E-1;1.063025594E0;7.019799232E0;6.162675381E0;9.401392053E0
1.450759860E-1;1.015141487E0;7.058106422E0;6.153098583E0;9.418492485E0
1.550910070E-1;9.864110947E-1;7.101202011E0;6.014234543E0;9.357942829E0
1.650950170E-1;1.005564690E0;7.173028469E0;6.124367714E0;9.485324331E0
1.751280220E-1;8.954314590E-1;7.134721279E0;6.114790916E0;9.439105529E0
1.851725250E-1;8.331822157E-1;7.086836815E0;5.894524574E0;9.255423740E0
1.951602760E-1;7.757213712E-1;6.971915245E0;5.631162167E0;8.995517393E0
2.051566520E-1;8.667010069E-1;6.847416878E0;5.760449409E0;8.990053722E0
2.151393400E-1;9.576807022E-1;6.847416878E0;6.301538944E0;9.354873772E0
2.251261840E-1;9.337386489E-1;6.924031258E0;6.651092529E0;9.646300252E0
2.351346060E-1;9.002198577E-1;6.895300865E0;6.258443356E0;9.355409293E0
2.451773170E-1;8.523358107E-1;6.818686485E0;5.951985359E0;9.091044573E0
2.551486720E-1;7.374141216E-1;6.924031258E0;6.062118530E0;9.232294922E0
2.653468500E-1;6.799532771E-1;7.168240070E0;6.382941723E0;9.622263102E0
2.753049390E-1;8.667010069E-1;7.182605267E0;6.344634533E0;9.622649137E0
2.853079830E-1;8.667010069E-1;7.235277653E0;6.047753334E0;9.469727226E0
2.952035050E-1;8.092401624E-1;7.192182064E0;6.081272125E0;9.453265211E0
3.052457660E-1;7.086837292E-1;7.077260017E0;6.478709698E0;9.620993781E0
3.152283970E-1;7.086837292E-1;7.000645638E0;6.756437302E0;9.755035468E0
3.252702120E-1;9.385270476E-1;7.019799232E0;7.058106422E0;9.998763951E0
3.354666200E-1;1.072602391E0;6.991068840E0;6.971915245E0;9.931420926E0
3.457818240E-1;1.000776291E0;7.019799232E0;6.861782074E0;9.867278636E0
3.554489260E-1;9.385270476E-1;6.967126846E0;7.053318024E0;9.958462966E0
3.653309770E-1;9.145850539E-1;6.933608055E0;7.335834026E0;1.013537603E1
3.752245020E-1;9.528923035E-1;6.971915245E0;7.532158375E0;1.030771632E1
3.851797650E-1;1.010353088E0;6.924031258E0;7.532158375E0;1.028087701E1
3.951558960E-1;1.053448796E0;6.909666061E0;7.096413612E0;9.960538419E0
4.052099620E-1;9.481038451E-1;6.684611320E0;6.770802498E0;9.561730799E0
4.153544950E-1;7.565677166E-1;6.689399719E0;6.698976517E0;9.497196938E0
4.252712610E-1;5.171475410E-1;6.823474884E0;6.722918510E0;9.592960146E0
4.352111440E-1;6.081272364E-1;6.895300865E0;7.048529625E0;9.879107380E0
4.451575860E-1;7.422025204E-1;7.608773232E0;7.134721279E0;1.045698534E1
4.551663070E-1;1.125274777E0;7.618350029E0;6.871358871E0;1.032090467E1
4.651531670E-1;1.125274777E0;7.460332394E0;6.349422932E0;9.860931716E0
4.751330970E-1;8.954314590E-1;7.326257229E0;5.937620163E0;9.472654099E0
4.851375620E-1;6.703764796E-1;7.307103634E0;5.583278179E0;9.220420997E0
4.951142950E-1;5.267243981E-1;7.436390400E0;5.425261021E0;9.220130038E0
5.051261610E-1;6.943184733E-1;7.422025204E0;5.401319027E0;9.205584365E0
5.151115940E-1;1.048660398E0;7.240066051E0;5.559336185E0;9.188278614E0
5.251783110E-1;1.359906554E0;7.192182064E0;5.832275391E0;9.359073934E0
5.351601690E-1;1.398213744E0;7.350199223E0;6.205770969E0;9.720700778E0
5.451660980E-1;1.455674648E0;7.287950039E0;6.220136166E0;9.691403323E0
5.560610630E-1;1.450886250E0;7.235277653E0;6.081272125E0;9.562226952E0
5.656310450E-1;1.316810966E0;7.220912457E0;5.813121796E0;9.363116620E0
5.754265360E-1;1.197100878E0;6.938396454E0;5.549759388E0;8.965167323E0
5.852822820E-1;1.221042871E0;6.473921299E0;5.712565422E0;8.719862750E0
5.952071550E-1;7.326257229E-1;7.139509678E0;5.410895824E0;8.988166249E0
6.051670910E-1;3.878606856E-1;8.389283180E0;5.181052685E0;9.867817140E0
6.154280590E-1;4.165911078E-1;8.034940720E0;6.042964935E0;1.006236780E1
6.252750430E-1;6.272808313E-1;7.331045628E0;6.378153324E0;9.737481762E0
6.352265350E-1;5.650315881E-1;7.153874874E0;5.693411827E0;9.160356142E0
6.451822810E-1;3.064578176E-1;8.413225174E0;5.051765442E0;9.818177443E0
6.551641540E-1;6.177040339E-1;8.374917984E0;5.851428986E0;1.023523476E1
6.651405910E-1;9.624691010E-1;7.694964409E0;6.402095318E0;1.005612492E1
6.751688090E-1;1.053448796E0;7.685387611E0;5.726930618E0;9.642233736E0
6.851909180E-1;7.852981687E-1;8.662221909E0;4.659116745E0;9.867023383E0
6.951954730E-1;7.278373241E-1;8.896853447E0;4.745307922E0;1.010948543E1
7.052287500E-1;5.698199868E-1;8.379706383E0;5.114014626E0;9.833479520E0
7.152108890E-1;6.560112834E-1;7.838616371E0;5.166687489E0;9.411106047E0
7.251914580E-1;7.326257229E-1;7.513004780E0;5.142745018E0;9.133991876E0
7.363332430E-1;5.554547906E-1;7.489062786E0;4.707000732E0;8.862869024E0
7.457801350E-1;1.292868853E-1;8.676587105E0;4.065354347E0;9.582639764E0
7.555185810E-1;-9.576806426E-2;9.471462250E0;3.711012602E0;1.017297317E1
7.653783040E-1;4.309563041E-1;9.112331390E0;4.280832767E0;1.007699538E1
7.752486660E-1;7.517793179E-1;8.868123055E0;4.716577530E0;1.007248143E1
7.852033470E-1;1.010353088E0;8.896853447E0;4.630385876E0;1.008044086E1
7.952156870E-1;1.379060149E0;8.997409821E0;3.974374771E0;9.932313185E0
8.051738570E-1;1.685518026E0;8.781931877E0;3.332728863E0;9.543080225E0
8.151609420E-1;1.704671621E0;8.465897560E0;2.868253708E0;9.099681652E0
8.251399850E-1;1.350329757E0;8.346187592E0;2.523488522E0;8.823277854E0
8.351675060E-1;8.188169599E-1;8.599972725E0;2.360682964E0;8.955602500E0
8.451457670E-1;6.368576288E-1;9.184157372E0;2.652775526E0;9.580790795E0
8.551678970E-1;5.602431893E-1;8.303091049E0;2.494758129E0;8.687865764E0
8.652769620E-1;5.985504389E-1;8.901641846E0;3.165134668E0;9.466549934E0
8.752344950E-1;8.092401624E-1;9.030928612E0;3.763684988E0;9.817222923E0
8.852067610E-1;1.101332784E0;8.949525833E0;3.998316765E0;9.863745916E0
8.951518940E-1;1.374271750E0;8.825027466E0;3.897760391E0;9.744858577E0
9.052274610E-1;1.403002143E0;8.815450668E0;3.835511208E0;9.715540732E0
9.151727440E-1;9.624691010E-1;8.762778282E0;3.806780815E0;9.602302337E0
9.251803860E-1;6.368576288E-1;8.834604263E0;3.711012602E0;9.603511580E0
9.351447070E-1;4.070142806E-1;8.892065048E0;3.754108191E0;9.660631954E0
9.452808670E-1;4.165911078E-1;8.901641846E0;3.811569214E0;9.692308062E0
9.552369470E-1;4.118026793E-1;8.772355080E0;3.720589399E0;9.537640199E0
9.651794870E-1;5.602431893E-1;8.762778282E0;3.567360640E0;9.477669417E0
9.751522570E-1;1.015141487E0;8.829815865E0;3.524264812E0;9.561203005E0
9.851736420E-1;1.508347034E0;8.796297073E0;3.658340216E0;9.645382632E0
9.951513350E-1;1.805228114E0;8.815450668E0;3.845088005E0;9.785485210E0
1.005160681E0;2.135627985E0;8.829815865E0;4.036623955E0;9.940869582E0
1.015130854E0;2.470816135E0;8.786720276E0;4.213795185E0;1.005323109E1
1.025254441E0;2.475604534E0;8.647856712E0;4.400542736E0;1.001393129E1
1.035310234E0;2.284068346E0;8.700529099E0;4.750096321E0;1.017249182E1
1.045211131E0;2.269703150E0;8.906430244E0;5.066130638E0;1.049484310E1
1.055159079E0;2.384624958E0;8.987833023E0;4.999093056E0;1.055739125E1
1.065182053E0;2.758120298E0;8.877699852E0;4.304774761E0;1.024460190E1
1.075167040E0;3.150769472E0;8.556877136E0;3.447650433E0;9.748527483E0
1.085146534E0;2.202665567E0;8.322244644E0;3.055001259E0;9.134797437E0
1.095194281E0;2.274491549E0;7.991845131E0;2.801215887E0;8.768677828E0
1.105252654E0;2.341529369E0;8.202534676E0;2.662352324E0;8.936020075E0
1.115287841E0;2.135627985E0;8.480262756E0;2.384624958E0;9.064336683E0
1.125234434E0;1.891419291E0;8.863334656E0;1.795651317E0;9.239076350E0
1.135179731E0;1.584961534E0;9.222464561E0;1.067813993E0;9.418395955E0
1.145276379E0;1.187524080E0;9.964667320E0;-1.532289088E-1;1.003634831E1
1.155250703E0;1.417367458E0;9.452308655E0;-1.374271750E0;9.656277350E0
1.165211865E0;1.900996208E0;9.303867340E0;-3.055001259E0;9.975408100E0
1.175142446E0;2.049436569E0;9.706093788E0;-4.338293552E0;1.082724516E1
1.185225737E0;1.987187386E0;9.859322548E0;-5.056553841E0;1.125717067E1
1.195270882E0;1.910573006E0;9.500192642E0;-4.836287498E0;1.083021820E1
1.205216955E0;2.102109194E0;9.471462250E0;-3.849876404E0;1.043786418E1
1.215229491E0;2.513911724E0;9.437943459E0;-1.345541358E0;9.859260136E0
1.225165259E0;2.365471363E0;9.524134636E0;1.608903527E0;9.944504306E0
1.235142643E0;-9.337386489E-1;9.615114212E0;5.147533417E0;1.094620434E1
1.245138835E0;7.134721279E-1;9.394847870E0;3.131615877E0;9.928707216E0
1.255110431E0;9.864110947E-1;9.476250648E0;1.685518026E0;9.675396851E0
1.265167729E0;1.632845521E0;9.351752281E0;4.070142806E-1;9.501953265E0
1.275168378E0;1.388636947E0;9.433155060E0;-8.619125932E-2;9.535206127E0
1.285141703E0;1.005564690E0;9.509769440E0;1.867477298E-1;9.564609237E0
1.295203365E0;8.331822157E-1;9.634267807E0;1.048660398E0;9.726921271E0
1.305240696E0;1.230619669E0;9.682151794E0;1.513135433E0;9.876642495E0
1.315341362E0;2.106897593E0;9.634267807E0;1.412579060E0;9.962605746E0
1.325237195E0;2.384624958E0;9.524134636E0;1.034295082E0;9.872453751E0
1.335241611E0;2.035071373E0;9.428366661E0;5.889736414E-1;9.663462285E0
1.345316319E0;1.872265697E0;9.433155060E0;3.399766386E-1;9.623168778E0
1.355266173E0;1.795651317E0;9.255983353E0;5.315127969E-1;9.443521447E0
1.365241600E0;1.623268723E0;9.332598686E0;1.072602391E0;9.533251044E0
1.375225814E0;1.776497602E0;9.418789864E0;1.024718285E0;9.639480992E0
1.385295421E0;1.613691926E0;9.308655739E0;9.337386489E-1;9.493521010E0
1.395357224E0;1.340752959E0;9.222464561E0;8.714894056E-1;9.360072909E0
1.405558126E0;1.197100878E0;9.203310966E0;1.292868972E0;9.370458550E0
1.415381077E0;1.197100878E0;9.308655739E0;1.580173135E0;9.517408750E0
1.425316552E0;1.077390790E0;9.418789864E0;1.709460020E0;9.633100590E0
1.435256290E0;1.383848548E0;9.504981041E0;1.321599364E0;9.695685962E0
1.445189659E0;1.886630893E0;9.600749016E0;8.523358107E-1;9.821417114E0
1.455144843E0;2.202665567E0;9.639056206E0;5.027823448E-1;9.900299502E0
1.465313435E0;2.456450939E0;9.672574997E0;1.963245422E-1;9.981553066E0
1.475241731E0;2.308010340E0;9.749189377E0;7.661445141E-1;1.004791434E1
1.485291879E0;2.432508945E0;9.538499832E0;9.193734527E-1;9.886623608E0
1.495268953E0;2.260126352E0;9.255983353E0;3.351882473E-2;9.527986275E0
1.505207490E0;1.762132406E0;9.035717010E0;-9.576806799E-3;9.205942875E0
1.515235759E0;1.656787634E0;8.983044624E0;4.932055473E-1;9.147857000E0
1.525190393E0;1.623268723E0;9.255983353E0;7.086837292E-1;9.423930274E0
1.535145710E0;1.838746905E0;9.203310966E0;6.512228847E-1;9.407763505E0
1.545117869E0;1.944091797E0;9.155426979E0;3.016694188E-1;9.364418857E0
1.555314448E0;2.011129379E0;8.987833023E0;-2.154781520E-1;9.212611718E0
1.565329238E0;1.843535304E0;8.801085472E0;-1.867477298E-1;8.994031500E0
1.575331633E0;1.690306425E0;8.738836288E0;2.154781520E-1;8.903416553E0
1.585240330E0;1.584961534E0;8.848969460E0;2.825157940E-1;8.994230302E0
1.595251679E0;1.465251446E0;8.882488251E0;3.351882398E-1;9.008768533E0
1.605244853E0;1.474828243E0;8.939949036E0;5.410895944E-1;9.076925970E0
1.615180940E0;1.302445769E0;8.839392662E0;1.221042871E0;9.017880755E0
1.625231984E0;1.029506683E0;8.757989883E0;1.508347034E0;8.946361360E0
1.635168006E0;6.272808313E-1;8.389283180E0;1.867477298E0;8.617483680E0
1.645305517E0;2.059013397E-1;7.852981567E0;2.298433542E0;8.185017508E0
1.655281272E0;2.920926213E-1;7.254431248E0;2.154781580E0;7.573319912E0
1.665307150E0;3.974374831E-1;6.593631268E0;1.996764183E0;6.900796842E0
1.675252589E0;1.201889277E0;6.172252178E0;9.481038451E-1;6.359255907E0
1.685240308E0;2.609679937E0;6.215347767E0;-1.877054095E0;6.997450201E0
1.695254168E0;3.495534420E0;6.885724068E0;-3.112462282E0;8.325825982E0
1.705213098E0;3.069366693E0;7.402871609E0;-3.169923067E0;8.618116512E0
1.715182563E0;2.729389906E0;8.001421928E0;-3.926490784E0;9.321461903E0
1.725274795E0;1.431732655E0;8.868123055E0;-2.140416384E0;9.234438110E0
1.735214911E0;-1.101332754E-1;9.658209801E0;6.033388376E-1;9.677663129E0
1.745499969E0;-9.097966552E-1;1.002691650E1;1.915361404E0;1.024867766E1
1.755306998E0;-7.900865674E-1;9.725247383E0;2.509123325E0;1.007473937E1
1.765347513E0;4.309563041E-1;9.308655739E0;2.394201756E0;9.621278348E0
1.775244270E0;1.422155857E0;8.695740700E0;1.958456993E0;9.026294223E0
1.785227649E0;2.178723574E0;7.656657219E0;1.268926859E0;8.061104859E0
1.795197838E0;2.882618904E0;6.253654957E0;-5.746084079E-2;6.886290279E0
1.805372933E0;3.351882458E0;4.979939461E0;-1.867477298E0;6.286683108E0
1.815366980E0;3.529053211E0;4.841075897E0;-2.686294317E0;6.565547164E0
1.825449004E0;3.308786631E0;5.846640587E0;-2.997540474E0;7.356393411E0
1.835308516E0;2.647987127E0;7.354987621E0;-2.681505919E0;8.264269643E0
1.845255772E0;1.589749932E0;8.935160637E0;-1.249773264E0;9.161131680E0
1.855498900E0;1.130063176E0;1.016578007E1;-1.436521020E-2;1.022840816E1
1.865401964E0;1.752555609E0;1.090798283E1;4.405331016E-1;1.105665455E1
1.875286996E0;2.260126352E0;1.126711273E1;1.580173075E-1;1.149264852E1
1.885325012E0;2.600103140E0;1.101332760E1;2.873041928E-1;1.131973784E1
1.895319520E0;3.892971992E0;1.121922874E1;6.224924326E-1;1.189175434E1
1.905331774E0;5.238513470E0;1.139640045E1;-5.698199868E-1;1.255566253E1
1.915726401E0;6.009446144E0;1.176510715E1;-8.283938169E-1;1.323697192E1
1.925464714E0;5.698200226E0;1.223915863E1;-6.560112834E-1;1.351653952E1
1.935336871E0;5.477933407E0;1.270842266E1;-1.479616642E0;1.391765161E1
1.945228949E0;5.142745018E0;1.307712936E1;-1.719036818E0;1.415677316E1
1.955172988E0;4.592078686E0;1.357512379E1;-1.398213744E0;1.439882544E1
1.965275508E0;4.505887508E0;1.401086807E1;-1.139639974E0;1.476164712E1
1.975474268E0;4.189853191E0;1.437478733E1;-1.383848548E0;1.503676885E1
1.985389648E0;3.873818398E0;1.499727917E1;-2.015917778E0;1.562014007E1
1.995345838E0;3.663128614E0;1.626141739E1;-1.819593310E0;1.676791957E1
2.005323433E0;3.902548790E0;1.760695839E1;-1.249773264E0;1.807752206E1
2.015326730E0;4.252102375E0;1.898123169E1;-8.667010069E-1;1.947097074E1
2.025354879E0;4.754884720E0;2.023100471E1;-1.580173075E-1;2.078286433E1
2.035258453E0;5.889736176E0;2.112164688E1;3.830722719E-2;2.192748108E1
2.045212240E0;7.211335659E0;2.200271416E1;-8.331822157E-1;2.316931127E1
2.055200134E0;8.092401505E0;2.179202461E1;-2.806004286E0;2.341480213E1
2.065359581E0;8.240841866E0;2.113601303E1;-3.687070608E0;2.298340730E1
2.075349304E0;9.337387085E0;2.058534622E1;-3.801992416E0;2.292157113E1
2.085274166E0;9.974244118E0;1.983356667E1;-4.467580318E0;2.264542308E1
2.095267097E0;9.356540680E0;1.947443581E1;-4.276044369E0;2.202460122E1
2.105294062E0;8.508993149E0;1.999637222E1;-3.864241600E0;2.207238613E1
2.115406545E0;6.660669327E0;2.120305061E1;-3.696647406E0;2.252995946E1
2.125391286E0;6.809109688E0;2.480393028E1;-5.425261021E0;2.628749492E1
2.135280657E0;8.556877136E0;2.683421326E1;-6.789956093E0;2.897237738E1
2.145213342E0;6.497863293E0;2.342486954E1;-5.128379822E0;2.484445652E1
2.155186185E0;3.778050184E0;1.609861183E1;-3.462015629E0;1.689451148E1
2.165293606E0;8.427590132E-1;8.590395927E0;3.562572241E0;9.337936920E0
2.175379817E0;-5.602431893E-1;3.007117271E0;8.034940720E0;8.597493768E0
2.185293922E0;-1.719036818E0;-9.959878922E-1;6.651092529E0;6.941477602E0
2.195357475E0;-3.394978046E0;-2.595314741E0;1.436042213E1;1.498276538E1
2.205376251E0;-5.616796970E0;-3.342305660E0;1.864604378E1;1.975839983E1
2.215378139E0;-3.313575268E0;-3.035847664E0;1.122401714E1;1.209027348E1
2.225387083E0;5.061342239E0;-2.082955360E0;-3.998316765E0;6.778084187E0
2.235393555E0;6.291962147E0;-6.655880809E-1;-1.010353088E0;6.407230955E0
2.245288791E0;2.959233284E0;6.224924326E-2;-8.331822157E-1;3.074919381E0
2.255338409E0;1.853112102E0;2.667140722E0;9.624691010E-1;3.387330935E0
2.265268218E0;1.853112102E0;2.992752075E0;2.944868088E0;4.589426707E0
2.275342123E0;8.714894056E-1;2.169146776E0;2.183511972E0;3.198814789E0
2.285455575E0;9.864110947E-1;1.067813993E0;2.628833532E0;3.003997222E0
2.295304801E0;1.177947283E0;-1.283292055E0;1.599326730E0;2.364792652E0
2.305398914E0;6.512228847E-1;-3.557783842E0;3.351882473E-2;3.617048607E0
2.315318471E0;1.197100878E-1;-4.185064793E0;-6.416460276E-1;4.235659034E0
2.325402749E0;-7.900865674E-1;-3.916913986E0;-1.091755986E0;4.142267868E0
2.335252888E0;-9.672574997E-1;-3.179499865E0;-1.393425345E0;3.603670442E0
2.345265958E0;-1.407790542E0;-2.063801765E0;-1.848323703E0;3.107644196E0
2.355212993E0;-1.575384736E0;-6.272808313E-1;-1.508347034E0;2.269455680E0
2.365447010E0;-1.532289028E0;6.751648784E-1;-1.489193439E0;2.240860187E0
2.375507019E0;-1.067813993E0;1.637633920E0;-9.289502501E-1;2.164490736E0
2.385396523E0;-2.537853718E-1;2.082955360E0;-6.847416759E-1;2.207256490E0
2.395278775E0;5.267243981E-1;1.824381709E0;-1.292868853E-1;1.903292492E0
2.405450901E0;6.272808313E-1;9.959878922E-1;-2.729389966E-1;1.208291694E0
2.415497964E0;-1.292868853E-1;3.687070608E-1;-6.751648784E-1;7.800689767E-1
2.425404996E0;-9.193734527E-1;3.543418646E-1;-2.537853718E-1;1.017454037E0
2.435269512E0;-1.182735682E0;5.602431893E-1;8.762778044E-1;1.574991719E0
2.445258270E0;-4.309563041E-1;4.836287498E-1;1.254561663E0;1.411929555E0
2.455267149E0;2.681505978E-1;3.016694188E-1;8.858546019E-1;9.734719087E-1
2.465263588E0;1.039083481E0;9.576806799E-3;6.368576288E-1;1.218759137E0
2.475442808E0;9.193734527E-1;-4.788403399E-3;3.543418646E-1;9.853063642E-1
2.485427418E0;-2.873042040E-2;2.968810201E-1;3.303998411E-1;4.451155267E-1
2.495435223E0;-5.746083856E-1;7.422025204E-1;5.171475410E-1;1.071672038E0
2.505327125E0;-4.692635238E-1;1.302445769E0;1.139639974E0;1.793140403E0
2.515274576E0;1.197100878E-1;1.604115129E0;1.853112102E0;2.453882701E0
2.525301802E0;4.118026793E-1;1.843535304E0;1.513135433E0;2.420285666E0
2.535419915E0;3.782838583E-1;2.217030764E0;5.171475410E-1;2.307762047E0
2.545421471E0;1.206677675E0;2.834734917E0;-1.493981838E0;3.423999824E0
2.555292749E0;2.159569979E0;3.337517262E0;-1.958456993E0;4.431514161E0
2.565259388E0;2.475604534E0;4.592078686E0;-2.183511972E0;5.655398218E0
2.575295208E0;3.624821424E0;5.516240597E0;-4.917690277E0;8.231155347E0
2.585320118E0;4.333505154E0;9.600749016E0;2.624045134E0;1.085537938E1
2.595257073E0;4.338293552E0;1.649604988E1;7.546523571E0;1.865182218E1
2.605488050E0;6.555324078E0;2.256295776E1;-8.590395927E0;2.501707895E1
2.615661539E0;1.293826580E1;3.214455032E1;-8.068459511E0;3.557767385E1
2.625470283E0;1.805706978E1;3.918829346E1;-1.149216816E-1;4.314850310E1
2.635349155E0;5.923254967E0;3.869987488E1;-8.992621422E0;4.017004487E1
2.645387591E0;-4.558559895E0;2.954444885E1;1.388636976E-1;2.989438425E1
2.655568809E0;-1.149216816E-1;3.118208313E1;2.820848465E1;4.204823565E1
2.665572918E0;6.631938934E0;1.985750961E1;-3.495534360E-1;2.093861241E1
2.675453473E0;1.360385418E1;1.414494324E1;-2.954923820E1;3.547254919E1
2.685370250E0;1.285207462E1;1.314416695E1;-1.900517273E1;2.644128471E1
2.695285139E0;7.206547260E0;1.221042824E1;9.002198577E-1;1.420701506E1
2.705345583E0;2.217030764E0;1.039562416E1;2.806004286E0;1.099353843E1
2.715321305E0;1.340752959E0;9.777919769E0;-3.452438831E0;1.045584370E1
2.725262666E0;1.063025594E0;1.138203526E1;-2.164358377E0;1.163465501E1
2.735205347E0;1.551442742E0;1.296699619E1;-3.782838583E-1;1.306495555E1
2.745331687E0;1.948880196E0;1.333091545E1;-1.292868853E-1;1.347323851E1
2.755588857E0;2.432508945E0;1.347456741E1;2.873042040E-2;1.369240272E1
2.765436442E0;3.327940464E0;1.366610336E1;-5.123591423E-1;1.407480304E1
2.775298735E0;4.390965939E0;1.389115810E1;-7.852981687E-1;1.458977548E1
2.785267881E0;4.582501888E0;1.390073490E1;-1.125274777E0;1.467978194E1
2.795338954E0;4.228160381E0;1.369004536E1;-1.273715258E0;1.438461097E1
2.805400491E0;4.113238335E0;1.335485744E1;-1.134851575E0;1.401994419E1
2.815258759E0;3.806780815E0;1.246421432E1;-5.602431893E-1;1.304461925E1
2.825305393E0;3.438073635E0;1.132936287E1;-3.782838583E-1;1.184558618E1
2.835206710E0;3.126827478E0;1.004128170E1;-2.202665508E-1;1.051916848E1
2.845160369E0;2.643198729E0;8.901641846E0;-1.819593310E-1;9.287563527E0
2.855134198E0;2.308010340E0;8.082824707E0;-3.303998411E-1;8.412379629E0
2.865176113E0;2.279279947E0;7.671022415E0;-6.512228847E-1;8.028934750E0
2.875215570E0;2.221819162E0;7.345410824E0;-9.433154464E-1;7.731842251E0
2.885173299E0;2.202665567E0;7.144298077E0;-1.034295082E0;7.547350325E0
2.895345663E0;2.015917778E0;6.962338448E0;-8.044517636E-1;7.292820016E0
2.905295845E0;1.972822189E0;6.900089264E0;-7.230489254E-1;7.212909190E0
2.915366436E0;1.843535304E0;6.742072105E0;-8.236053586E-1;7.037931832E0
2.925312232E0;1.321599364E0;6.665457726E0;-6.751648784E-1;6.828674775E0
2.935255130E0;8.667010069E-1;6.809109688E0;-3.208230138E-1;6.871540787E0
2.945251079E0;9.672574997E-1;7.101202011E0;-5.889736414E-1;7.190935059E0
2.955188053E0;1.144428372E0;7.331045628E0;-7.182605267E-1;7.454518393E0
2.965164540E0;1.015141487E0;7.445967197E0;-4.596867263E-1;7.528894449E0
2.975141284E0;1.072602391E0;7.603984833E0;-3.064578176E-1;7.685374267E0
2.985188656E0;1.144428372E0;7.790732384E0;-1.628057212E-1;7.876022669E0
2.995144342E0;1.244984865E0;7.982268333E0;-3.160346150E-1;8.084953490E0
3.005192185E0;1.244984865E0;8.341399193E0;-4.165911078E-1;8.444079344E0
3.015283106E0;1.201889277E0;8.580819130E0;-1.628057212E-1;8.666112189E0
3.025324567E0;1.374271750E0;8.858546257E0;-2.489969730E-1;8.967968785E0
3.035241297E0;1.623268723E0;9.121908188E0;-5.363011956E-1;9.280723534E0
3.045280162E0;1.991975784E0;9.390059471E0;-7.469909191E-1;9.628041329E0
3.055196095E0;2.288856745E0;9.548076630E0;-1.029506683E0;9.872411890E0
3.065227561E0;2.303221941E0;9.643844604E0;-1.144428372E0;9.980896070E0
3.075293294E0;2.130839586E0;9.763554573E0;-1.154005170E0;1.005978147E1
3.085379661E0;2.111685991E0;9.940725327E0;-8.858546019E-1;1.020107720E1
3.095259844E0;2.255337954E0;9.993397713E0;-9.337386489E-1;1.028719665E1
3.105243436E0;2.106897593E0;9.974244118E0;-8.379706144E-1;1.022872220E1
3.115255732E0;2.116474390E0;9.854534149E0;-9.672574997E-1;1.012555649E1
3.125342880E0;2.025494576E0;9.763554573E0;-9.864110947E-1;1.002011143E1
3.135245954E0;1.987187386E0;9.552865028E0;-8.331822157E-1;9.792871722E0
3.145219991E0;1.805228114E0;9.265560150E0;-8.906430602E-1;9.481703354E0
3.155193009E0;1.747767210E0;9.097966194E0;-8.571242094E-1;9.303888488E0
3.165269518E0;1.838746905E0;9.059659004E0;-9.528923035E-1;9.293353281E0
3.175276273E0;1.824381709E0;9.064447403E0;-1.101332784E0;9.311579310E0
3.185343150E0;2.059013367E0;9.059659004E0;-1.335964561E0;9.386253705E0
3.195222089E0;2.054224968E0;9.074024200E0;-1.470039845E0;9.419064314E0
3.205499558E0;2.097320795E0;9.102754593E0;-1.302445769E0;9.431609655E0
3.215370293E0;2.111685991E0;9.203310966E0;-1.206677675E0;9.519255301E0
3.225253160E0;2.126051188E0;9.294290543E0;-8.667010069E-1;9.573667060E0
3.235197094E0;2.126051188E0;9.241618156E0;-1.015141487E0;9.537196236E0
3.245354061E0;2.073378563E0;9.208099365E0;-1.316810966E0;9.530056857E0
3.255272544E0;2.221819162E0;9.260771751E0;-1.292868972E0;9.610925242E0
3.265300786E0;2.432508945E0;9.370905876E0;-1.221042871E0;9.758172083E0
3.275189907E0;2.264914751E0;9.485827446E0;-8.810662031E-1;9.792192748E0
3.285266467E0;2.193088770E0;9.648633003E0;-6.560112834E-1;9.916456423E0
3.295309747E0;2.111685991E0;9.375694275E0;-2.585737705E-1;9.614037719E0
3.305235887E0;1.719036818E0;9.078812599E0;-2.106897533E-1;9.242527574E0
3.315175457E0;1.948880196E0;9.093177795E0;-8.714894056E-1;9.340423450E0
3.325230242E0;2.082955360E0;9.284713745E0;-1.216254473E0;9.592908178E0
3.335174635E0;2.240972757E0;9.500192642E0;-1.058237195E0;9.818120243E0
3.345150331E0;2.250549555E0;9.682151794E0;-7.948749661E-1;9.972003955E0
3.355117179E0;2.049436569E0;9.773131371E0;-3.974374831E-1;9.993610138E0
3.365188603E0;2.073378563E0;9.744400978E0;-5.793967843E-1;9.979376219E0
3.375221815E0;1.685518026E0;9.514557838E0;-6.703764796E-1;9.685927240E0
3.385172421E0;1.546654344E0;9.418789864E0;-1.532289088E-1;9.546162645E0
3.395222224E0;1.594538331E0;9.385271072E0;-8.619125932E-2;9.520152022E0
3.405275126E0;1.757344007E0;9.265560150E0;-2.442085743E-1;9.433901668E0
3.415447077E0;1.781286120E0;9.174580574E0;-7.038952708E-1;9.372373099E0
3.425315052E0;2.087743998E0;9.227252960E0;-1.134851575E0;9.528313612E0
3.435314040E0;2.303221941E0;9.236829758E0;-1.714248419E0;9.672771212E0
3.445222034E0;2.370259762E0;9.265560150E0;-1.987187386E0;9.768195839E0
3.455180031E0;2.652775526E0;9.303867340E0;-2.437297344E0;9.976952632E0
3.465360029E0;2.212242365E0;9.275136948E0;-2.810792685E0;9.940962589E0
3.475234028E0;1.671152830E0;9.370905876E0;-2.006340981E0;9.727899714E0
3.486698028E0;1.723825216E0;9.504981041E0;-4.357447028E-1;9.669855811E0
3.495918028E0;1.656787634E0;9.543288231E0;9.576806799E-3;9.686040844E0
3.505551528E0;1.580173135E0;9.557653427E0;4.309563041E-1;9.696979401E0
3.515934278E0;1.719036818E0;9.442731857E0;4.070142806E-1;9.606556778E0
3.525746653E0;1.441309452E0;9.327810287E0;2.729389966E-1;9.442452721E0
3.535445840E0;1.403002143E0;9.265560150E0;-3.351882473E-2;9.371240229E0
3.545318934E0;1.704671621E0;9.318233490E0;-3.303998411E-1;9.478636229E0
3.555214481E0;1.877054095E0;9.437943459E0;-2.489969730E-1;9.626012066E0
3.565171754E0;2.308010340E0;9.524134636E0;-2.346317619E-1;9.802607018E0
3.575157891E0;2.394201756E0;9.318233490E0;-4.932055473E-1;9.633531498E0
3.586044459E0;2.236184359E0;9.107542992E0;-9.720458984E-1;9.428294282E0
3.595583243E0;2.073378563E0;9.002198219E0;-1.063025594E0;9.298843738E0
3.605378135E0;2.020706177E0;8.968679428E0;-1.249773264E0;9.278059999E0
3.615522581E0;2.149993181E0;9.141061783E0;-4.213795066E-1;9.399949036E0
3.625356304E0;2.892195702E0;9.423578262E0;-6.560112834E-1;9.879219303E0
3.635248166E0;2.049436569E0;9.212887764E0;-3.639186621E-1;9.445100740E0
3.645177097E0;1.407790542E0;8.729259491E0;3.974374831E-1;8.850977461E0
3.655142062E0;1.211466074E0;8.576030731E0;1.790862918E0;8.844384837E0
3.665247045E0;1.058237195E0;8.676587105E0;2.719813108E0;9.154256556E0
3.675201036E0;8.092401624E-1;8.825027466E0;3.179499865E0;9.415157928E0
3.685163032E0;-4.932055473E-1;9.366117477E0;2.896984100E0;9.816309143E0
3.695138530E0;-6.224924326E-1;9.078812599E0;2.461239338E0;9.427090438E0
3.705179279E0;-3.782838583E-1;8.437167168E0;2.729389906E0;8.875722942E0
3.715416153E0;-2.681505978E-1;8.264783859E0;3.715801001E0;9.065634785E0
3.725265590E0;-6.703764796E-1;8.255207062E0;4.050989151E0;9.219997904E0
3.735184809E0;-1.599326730E0;8.676587105E0;3.998316765E0;9.686462034E0
3.745244418E0;-1.795651317E0;9.035717010E0;4.050989151E0;1.006374973E1
3.755240723E0;-1.436521053E0;8.906430244E0;4.079719543E0;9.901121350E0
3.765268375E0;-9.002198577E-1;8.576030731E0;4.558559895E0;9.753930859E0
3.775190201E0;-4.261679053E-1;8.470685959E0;5.161899090E0;9.928713004E0
3.785206114E0;1.819593310E-1;8.322244644E0;5.559336185E0;1.000994925E1
3.795345571E0;5.219359994E-1;8.188169479E0;5.731719017E0;1.000855332E1
3.805292299E0;1.388636976E-1;7.881711960E0;5.746084213E0;9.754903912E0
3.815254663E0;-6.607996821E-1;7.450755596E0;5.846640587E0;9.493872831E0
3.825371845E0;-1.288080573E0;7.445967197E0;5.956773758E0;9.622096064E0
3.835262436E0;-1.335964561E0;7.469909191E0;6.119579315E0;9.748517612E0
3.845232732E0;-1.474828243E0;7.398083210E0;6.272808552E0;9.810957173E0
3.855201880E0;-1.230619669E0;7.809885979E0;6.607996464E0;1.030409438E1
3.865166454E0;-4.596867263E-1;8.130708694E0;7.259219646E0;1.090944571E1
3.875146741E0;1.436520964E-1;8.173804283E0;7.067683220E0;1.080665806E1
3.885124884E0;2.585737705E-1;7.805097580E0;6.698976517E0;1.028895986E1
3.895169456E0;1.915361360E-2;7.685387611E0;6.560112476E0;1.010448541E1
3.905172242E0;-3.256114423E-1;7.642292023E0;6.306327343E0;9.913647902E0
3.915206635E0;-9.576806799E-3;7.608773232E0;6.129156113E0;9.770367263E0
3.925244831E0;6.512228847E-1;7.714118004E0;6.114790916E0;9.865210377E0
3.935178429E0;1.268926859E0;7.819462776E0;5.884947777E0;9.868474240E0
3.945356228E0;1.570596337E0;7.943961143E0;5.793968201E0;9.957075826E0
3.955312628E0;1.508347034E0;8.020575523E0;5.655104637E0;9.928995466E0
3.965261328E0;1.144428372E0;8.101978302E0;5.568912983E0;9.897704811E0
3.975174178E0;6.655880809E-1;8.001421928E0;5.430049419E0;9.692842569E0
3.985189603E0;4.213795066E-1;7.656657219E0;5.377377033E0;9.365796507E0
3.995228815E0;-1.436521020E-2;7.814674377E0;5.099649429E0;9.331439668E0
4.005176421E0;6.224924326E-2;7.618350029E0;4.802768707E0;9.006093459E0
4.015141724E0;5.363011956E-1;7.417236805E0;4.994304657E0;8.958018743E0
4.025312876E0;9.768342972E-1;7.211335659E0;5.200206280E0;8.944255843E0
4.035307952E0;1.130063176E0;7.091625214E0;5.238513470E0;8.888768999E0
4.045268990E0;1.134851575E0;7.029376030E0;5.195417881E0;8.814328246E0
4.055337009E0;1.221042871E0;7.077260017E0;5.367800236E0;8.966149364E0
4.065225018E0;2.609679937E0;7.374141216E0;8.911218643E0;1.185741143E1
4.075190523E0;9.050082564E-1;7.594407558E0;6.833051682E0;1.025595736E1
4.085271775E0;2.873041928E-1;7.196970463E0;4.932055473E0;8.729495904E0
4.095217401E0;6.799532771E-1;7.034164429E0;6.694188118E0;9.734164588E0
4.105156714E0;1.024718285E0;6.560112476E0;8.020575523E0;1.041224063E1
4.115184871E0;1.307234168E0;6.411672115E0;9.744400978E0;1.173762118E1
4.125207949E0;1.283292055E0;6.301538944E0;1.000776291E1;1.189586273E1
4.135153988E0;1.216254473E0;6.062118530E0;9.643844604E0;1.145566649E1
4.145133508E0;8.283938169E-1;5.980715752E0;8.480262756E0;1.041009383E1
4.155168768E0;3.447650373E-1;6.133944988E0;7.287950039E0;9.531965160E0
4.165137398E0;1.388636976E-1;6.239289761E0;6.382941723E0;8.926923596E0
4.175108213E0;1.915361285E-1;6.287173748E0;6.119579315E0;8.775790040E0
4.185216120E0;2.968810201E-1;6.234501362E0;6.287173748E0;8.859215502E0
4.195271074E0;4.548983276E-1;6.100425720E0;6.569689274E0;8.976800299E0
4.205234051E0;4.118026793E-1;6.019022942E0;7.029376030E0;9.263387393E0
4.215221539E0;3.543418646E-1;5.899312973E0;7.283161640E0;9.379333408E0
4.225190283E0;4.740519226E-1;5.846640587E0;7.393294811E0;9.437623617E0
4.235171655E0;8.475474119E-1;6.114790916E0;7.728483200E0;9.891332425E0
4.245161341E0;1.029506683E0;6.282385349E0;7.742848396E0;1.002396882E1
4.255137184E0;1.029506683E0;6.248866558E0;7.350199223E0;9.702249527E0
4.265207106E0;9.576807022E-1;6.244078159E0;7.407660007E0;9.735455365E0
4.275210067E0;8.954314590E-1;6.086060524E0;7.220912457E0;9.485963678E0
4.285171047E0;6.799532771E-1;5.975927353E0;7.072471619E0;9.284066942E0
4.295138037E0;5.937620401E-1;5.971138954E0;7.335834026E0;9.477421307E0
4.305133532E0;6.464344859E-1;6.129156113E0;7.872135162E0;9.997746957E0
4.315207280E0;1.053448796E0;6.368576527E0;7.939172745E0;1.023225221E1
4.325176154E0;1.058237195E0;6.454767704E0;7.905653954E0;1.026076296E1
4.335159591E0;1.168370485E0;6.296750546E0;7.900865555E0;1.017043920E1
4.345183809E0;1.364694953E0;6.114790916E0;8.303091049E0;1.040165281E1
4.355201418E0;1.810016513E0;5.813121796E0;9.414001465E0;1.121124294E1
4.365247723E0;2.734178305E0;5.765237808E0;9.710882187E0;1.161959254E1
4.375333375E0;2.389413357E0;5.679046631E0;9.366117477E0;1.121093321E1
4.385453201E0;1.383848548E0;5.573701382E0;8.638279915E0;1.037309326E1
4.395300614E0;2.968810201E-1;5.626373768E0;7.326257229E0;9.242200230E0
4.405260321E0;-1.005564705E-1;5.621585369E0;6.512228489E0;8.603572139E0
4.415443174E0;-2.106897533E-1;5.578489780E0;6.890512466E0;8.868094522E0
4.425399101E0;-1.101332754E-1;5.468356609E0;7.565677166E0;9.335658752E0
4.435270064E0;1.197100878E-1;5.425261021E0;7.891288757E0;9.577067709E0
4.445517046E0;5.075707436E-1;5.425261021E0;8.183381081E0;9.831521302E0
4.455494537E0;1.024718285E0;5.386953831E0;8.748413086E0;1.032492376E1
4.465369282E0;1.312022567E0;5.003881454E0;9.275136948E0;1.062018824E1
4.475259655E0;1.024718285E0;4.797980309E0;9.126696587E0;1.036181708E1
4.485316341E0;9.720458984E-1;4.639962673E0;9.083600998E0;1.024626439E1
4.495262684E0;6.799532771E-1;4.390965939E0;8.638279915E0;9.714051586E0
4.505238356E0;1.532289088E-1;4.261679173E0;8.279149055E0;9.312878049E0
4.515215692E0;-1.484405100E-1;4.276044369E0;8.087613106E0;9.149648943E0
4.525161860E0;-1.819593310E-1;4.247313976E0;8.006210327E0;9.064887700E0
4.535154944E0;-4.309562966E-2;4.146757126E0;7.929595947E0;8.948516289E0
4.545130986E0;1.628057212E-1;4.137180328E0;7.790732384E0;8.822600402E0
4.555143007E0;4.213795066E-1;4.209006786E0;7.556100368E0;8.659558395E0
4.565166017E0;6.847416759E-1;4.242525578E0;7.690176010E0;8.809466585E0
4.575247022E0;8.762778044E-1;4.328716755E0;8.116343498E0;9.240166845E0
4.585214025E0;-4.070142806E-1;4.362235546E0;7.192182064E0;8.421534446E0
4.595153526E0;7.469909191E-1;4.146757126E0;7.881711960E0;8.937279984E0
4.605203777E0;1.096544385E0;4.036623955E0;7.876923561E0;8.918669594E0
4.615235402E0;1.197100878E0;4.074931145E0;8.159439087E0;9.198617318E0
4.625275715E0;1.297657371E0;4.132391930E0;8.623914719E0;9.650517229E0
4.635190371E0;1.455674648E0;4.118026733E0;9.184157372E0;1.016985150E1
4.645299699E0;1.757344007E0;4.185064793E0;9.864110947E0;1.085834748E1
4.655227863E0;1.723825216E0;4.276044369E0;9.543288231E0;1.059860741E1
4.665175445E0;1.857900500E0;4.328716755E0;9.045293808E0;1.019837845E1
4.675134236E0;1.628057122E0;4.266467571E0;8.432378769E0;9.589490457E0
4.685188132E0;1.374271750E0;4.146757126E0;7.910442352E0;9.036554416E0
4.695177080E0;1.197100878E0;3.974374771E0;7.656657219E0;8.709368812E0
4.705200554E0;8.906430602E-1;3.696647406E0;7.757213593E0;8.639028292E0
4.715227791E0;4.692635238E-1;3.509899616E0;8.025363922E0;8.771890882E0
4.725341409E0;1.771709323E-1;3.390189648E0;8.317456245E0;8.983588024E0
4.735278218E0;2.106897533E-1;3.438073635E0;8.638279915E0;9.299710769E0
4.745224123E0;5.027823448E-1;3.404554844E0;8.777143478E0;9.427726736E0
4.755164575E0;7.374141216E-1;3.471592426E0;8.619126320E0;9.321216234E0
4.765322301E0;7.469909191E-1;3.572149038E0;8.346187592E0;9.109176225E0
4.775247164E0;5.458779931E-1;3.572149038E0;8.068459511E0;8.840716623E0
4.785347596E0;4.165911078E-1;3.615244627E0;7.881711960E0;8.681297442E0
4.795276312E0;3.782838583E-1;3.677493811E0;7.924807549E0;8.744691766E0
4.805256170E0;4.453215301E-1;3.567360640E0;8.159439087E0;8.916323200E0
4.815215099E0;5.937620401E-1;3.452438831E0;8.116343498E0;8.840074605E0
4.825217063E0;4.788403511E-1;3.538630009E0;8.001421928E0;8.762074144E0
4.835159545E0;4.692635238E-1;3.533841610E0;7.920019150E0;8.685329476E0
4.845170286E0;2.681505978E-1;3.404554844E0;8.006210327E0;8.704154309E0
4.855131657E0;4.932055473E-1;3.428496838E0;8.283937454E0;8.978945485E0
4.865406342E0;3.974374831E-1;3.428496838E0;8.279149055E0;8.969774590E0
4.875420185E0;4.118026793E-1;3.529053211E0;8.346187592E0;9.070978190E0
4.885274606E0;6.943184733E-1;3.596091032E0;8.389283180E0;9.153907424E0
4.895204817E0;9.050082564E-1;3.581725836E0;8.427590370E0;9.201743278E0
4.905180422E0;1.115697980E0;3.576937437E0;8.767566681E0;9.534646764E0
4.915209725E0;1.154005170E0;3.572149038E0;9.361329079E0;1.008595354E1
4.925242876E0;8.092401624E-1;3.648763418E0;9.351752281E0;1.007092920E1
4.935203452E0;2.873041928E-1;3.830722809E0;8.896853447E0;9.690767885E0
4.945262240E0;5.267243832E-2;3.830722809E0;8.667010307E0;9.475984344E0
4.955240134E0;1.723825186E-1;3.715801001E0;8.695740700E0;9.457948992E0
4.965237081E0;2.729389966E-1;3.610456228E0;8.781931877E0;9.499064026E0
4.975304054E0;3.974374831E-1;3.658340216E0;8.801085472E0;9.539419017E0
4.985279541E0;4.501099288E-1;3.663128614E0;8.738836288E0;9.486219999E0
4.995204784E0;2.154781520E-1;3.672705412E0;8.595184326E0;9.349459315E0
5.005174906E0;-1.340752989E-1;3.739742994E0;8.355764389E0;9.155460249E0
5.015164467E0;-2.298433632E-1;3.643975019E0;8.470685959E0;9.224093588E0
5.025361247E0;4.788403213E-2;3.476380825E0;8.681375504E0;9.351673495E0
5.035388637E0;2.968810201E-1;3.457227230E0;8.968679428E0;9.616536234E0
5.045385332E0;5.985504389E-1;3.342305660E0;9.097966194E0;9.710935003E0
5.055306180E0;1.915361285E-1;3.452438831E0;8.987833023E0;9.630013625E0
5.065267104E0;2.250549644E-1;3.500322819E0;9.126696587E0;9.777499688E0
5.075309066E0;3.351882398E-1;3.394978046E0;8.920795441E0;9.550854328E0
5.085263047E0;2.202665508E-1;3.490746021E0;8.681375504E0;9.359492816E0
5.095291537E0;2.202665508E-1;3.576937437E0;8.858546257E0;9.555984542E0
5.105210782E0;4.453215301E-1;3.667917013E0;9.078812599E0;9.801875570E0
5.115425405E0;6.799532771E-1;3.754108191E0;8.987833023E0;9.764056904E0
5.125366216E0;6.991068721E-1;3.845088005E0;8.657433510E0;9.498663441E0
5.135245122E0;6.272808313E-1;3.892971992E0;8.336610794E0;9.222135962E0
5.145375075E0;-2.106897533E-1;3.782838583E0;7.024587631E0;7.981170923E0
5.155350051E0;6.320692301E-1;3.620033026E0;8.188169479E0;8.974980225E0
5.165245539E0;1.197100878E0;3.524264812E0;9.141061783E0;9.869777277E0
5.175206283E0;1.235408068E0;3.691859007E0;9.624691010E0;1.038223160E1
5.185159155E0;9.720458984E-1;3.778050184E0;9.586383820E0;1.034974836E1
5.195233091E0;6.177040339E-1;3.778050184E0;9.150638580E0;9.919143506E0
5.205207559E0;3.687070608E-1;3.687070608E0;8.753201485E0;9.505207562E0
5.215209293E0;3.926490843E-1;3.572149038E0;8.566453934E0;9.289701559E0
5.225159660E0;5.363011956E-1;3.500322819E0;8.528146744E0;9.234130478E0
5.235199344E0;6.416460276E-1;3.481169224E0;8.580819130E0;9.282279124E0
5.245172186E0;6.320692301E-1;3.481169224E0;8.695740700E0;9.387968736E0
5.255179107E0;6.033388376E-1;3.433285236E0;8.848969460E0;9.510821508E0
5.265244067E0;5.746083856E-1;3.289633036E0;8.815450668E0;9.426772024E0
5.275289547E0;5.410895944E-1;3.179499865E0;8.724471092E0;9.301526390E0
5.285290287E0;6.703764796E-1;3.031059265E0;8.690952301E0;9.228725632E0
5.295256657E0;6.560112834E-1;3.026270866E0;8.532935143E0;9.077425203E0
5.305230842E0;3.256114423E-1;3.251325846E0;8.556877136E0;9.159546326E0
5.315196435E0;1.484405100E-1;3.270479441E0;8.667010307E0;9.264725469E0
5.325274231E0;2.777273953E-1;3.145981073E0;8.825027466E0;9.373123236E0
5.335417629E0;5.267243981E-1;3.126827478E0;8.911218643E0;9.458557310E0
5.345342328E0;6.943184733E-1;3.222595453E0;9.030928612E0;9.613785477E0
5.355303178E0;6.177040339E-1;3.222595453E0;9.188945770E0;9.757223176E0
5.365391603E0;4.501099288E-1;3.155557871E0;9.265560150E0;9.798507505E0
5.375398315E0;3.495534360E-1;3.136404276E0;9.265560150E0;9.788249296E0
5.385582171E0;2.777273953E-1;3.117250681E0;9.117119789E0;9.639307940E0
5.395374099E0;3.112462163E-1;3.141192675E0;8.949525833E0;9.489888211E0
5.405310563E0;4.644751251E-1;3.136404276E0;8.911218643E0;9.458466399E0
5.415246795E0;5.650315881E-1;3.198653460E0;9.093177795E0;9.655906331E0
5.425189411E0;5.746083856E-1;3.303998232E0;9.222464561E0;9.813278336E0
5.435171219E0;6.081272364E-1;3.390189648E0;9.093177795E0;9.723635483E0
5.445346123E0;6.943184733E-1;3.414131641E0;8.676587105E0;9.349948492E0
5.455348575E0;7.326257229E-1;3.529053211E0;8.360552788E0;9.104383556E0
5.465287801E0;7.038952708E-1;3.634398222E0;8.178592682E0;8.977399247E0
5.475232414E0;6.943184733E-1;3.572149038E0;8.130708694E0;8.907903837E0
5.485400721E0;6.464344859E-1;3.485957623E0;8.307879448E0;9.032753678E0
5.495308374E0;5.554547906E-1;3.394978046E0;8.643068314E0;9.302528465E0
5.505289201E0;4.979939461E-1;3.270479441E0;8.772355080E0;9.375406518E0
5.515254614E0;3.926490843E-1;3.213018656E0;8.676587105E0;9.260714118E0
5.525339321E0;3.064578176E-1;3.088520288E0;8.647856712E0;9.187943169E0
5.535349174E0;3.543418646E-1;3.059789658E0;8.714894295E0;9.243227438E0
5.545312101E0;5.267243981E-1;3.155557871E0;8.872911453E0;9.432048649E0
5.555863564E0;6.512228847E-1;3.323152065E0;8.983044624E0;9.600131333E0
5.565607796E0;7.565677166E-1;3.394978046E0;9.026140213E0;9.673131747E0
5.575349412E0;7.182605267E-1;3.466804028E0;8.887276649E0;9.566520506E0
5.585279720E0;5.937620401E-1;3.524264812E0;8.729259491E0;9.432548282E0
5.595190874E0;5.171475410E-1;3.471592426E0;8.671798706E0;9.355185105E0
5.605143451E0;5.123591423E-1;3.452438831E0;8.748413086E0;9.418947781E0
5.615167739E0;5.123591423E-1;3.351882458E0;8.781931877E0;9.413817260E0
5.625150883E0;5.027823448E-1;3.222595453E0;8.848969460E0;9.430915758E0
5.635123455E0;5.027823448E-1;3.102885485E0;8.901641846E0;9.440334526E0
5.645239241E0;5.267243981E-1;3.141192675E0;8.815450668E0;9.373190519E0
5.655256634E0;5.698199868E-1;3.160346270E0;8.667010307E0;9.242810775E0
5.665295331E0;5.458779931E-1;3.169923067E0;8.623914719E0;9.204254457E0
5.675223179E0;5.171475410E-1;3.174711466E0;8.786720276E0;9.356959318E0
5.685167103E0;5.315127969E-1;3.241749048E0;8.920795441E0;9.506420674E0
5.695303565E0;5.171475410E-1;3.361459255E0;8.983044624E0;9.605307940E0
5.705308296E0;5.506663918E-1;3.375824451E0;9.050082207E0;9.674885640E0
5.715357662E0;5.315127969E-1;3.342305660E0;9.002198219E0;9.617332570E0
5.725477845E0;4.836287498E-1;3.313575268E0;8.925583839E0;9.533085791E0
5.735329936E0;4.548983276E-1;3.241749048E0;8.896853447E0;9.479972080E0
5.745400482E0;4.453215301E-1;3.227383852E0;8.983044624E0;9.555595665E0
5.755325255E0;3.543418646E-1;3.256114244E0;8.868123055E0;9.453647161E0
5.765300641E0;2.633621991E-1;3.193865061E0;8.796297073E0;9.361889546E0
5.775591334E0;2.106897533E-1;3.131615877E0;8.844181061E0;9.384612235E0
5.785409181E0;2.777273953E-1;3.145981073E0;8.892065048E0;9.436267813E0
5.795340604E0;2.873041928E-1;3.098097086E0;8.930372238E0;9.456865102E0
5.805354316E0;4.022258818E-1;3.141192675E0;8.916007042E0;9.461715418E0
5.815300172E0;4.692635238E-1;3.126827478E0;8.882488251E0;9.428459888E0
5.825516100E0;4.979939461E-1;3.083731890E0;8.853757858E0;9.388632944E0
5.835427064E0;4.309563041E-1;3.102885485E0;8.810662270E0;9.351010175E0
5.845324046E0;4.453215301E-1;3.112462282E0;8.796297073E0;9.341336892E0
5.855242537E0;5.267243981E-1;3.117250681E0;8.848969460E0;9.396752146E0
5.865256282E0;5.458779931E-1;3.150769472E0;8.983044624E0;9.535220069E0
5.875185655E0;5.458779931E-1;3.275267839E0;9.160215378E0;9.743454622E0
5.885247841E0;5.506663918E-1;3.280056238E0;9.069235802E0;9.659867516E0
5.895225434E0;5.554547906E-1;3.313575268E0;8.978256226E0;9.586312948E0
5.905232231E0;5.315127969E-1;3.275267839E0;9.083600998E0;9.670661423E0
5.915211129E0;4.692635238E-1;3.280056238E0;9.136273384E0;9.718563090E0
5.925192078E0;4.309563041E-1;3.251325846E0;9.069235802E0;9.644059369E0
5.935178053E0;3.830722570E-1;3.270479441E0;8.983044624E0;9.567542571E0
5.945261540E0;4.548983276E-1;3.270479441E0;8.882488251E0;9.476368808E0
5.955260784E0;5.027823448E-1;3.294421434E0;8.829815865E0;9.437777857E0
5.965381906E0;5.410895944E-1;3.213018656E0;8.863334656E0;9.443249867E0
5.975310967E0;4.979939461E-1;3.117250681E0;8.920795441E0;9.462866430E0
5.985639497E0;4.309563041E-1;3.102885485E0;8.887276649E0;9.423232349E0
5.995427762E0;4.165911078E-1;3.064578056E0;8.877699852E0;9.400996834E0
6.005321395E0;4.548983276E-1;3.064578056E0;8.935160637E0;9.457043236E0
6.015357211E0;4.548983276E-1;2.978386879E0;8.963891029E0;9.456694099E0
6.025387119E0;4.405331016E-1;2.987963676E0;8.992621422E0;9.486265671E0
6.035250573E0;4.836287498E-1;2.940079689E0;8.896853447E0;9.382535191E0
6.045489300E0;4.979939461E-1;3.035847664E0;8.796297073E0;9.318755883E0
6.055380164E0;5.171475410E-1;3.107673883E0;8.757989883E0;9.307387676E0
6.065294096E0;4.501099288E-1;3.208230257E0;8.757989883E0;9.337972324E0
6.075331562E0;3.830722570E-1;3.155557871E0;8.916007042E0;9.465699731E0
6.085335295E0;3.878606856E-1;3.064578056E0;9.064447403E0;9.576339661E0
6.095242161E0;4.405331016E-1;3.040636063E0;9.121908188E0;9.625421864E0
6.105207594E0;4.261679053E-1;3.131615877E0;9.112331390E0;9.644854610E0
6.115202811E0;4.165911078E-1;3.184288263E0;8.939949036E0;9.499259374E0
6.125356919E0;5.075707436E-1;3.179499865E0;8.801085472E0;9.371550189E0
6.135600973E0;5.889736414E-1;3.165134668E0;8.753201485E0;9.326494714E0
6.145449000E0;5.746083856E-1;3.059789658E0;8.734047890E0;9.272328730E0
6.155550014E0;5.410895944E-1;2.983175278E0;8.710105896E0;9.222692525E0
6.165439521E0;5.315127969E-1;2.873042107E0;8.786720276E0;9.259769436E0
6.175262274E0;5.267243981E-1;2.844311714E0;8.892065048E0;9.350741604E0
6.185304651E0;5.985504389E-1;2.892195702E0;8.978256226E0;9.451568307E0
6.195288839E0;6.512228847E-1;3.007117271E0;9.030928612E0;9.540676974E0
6.205299933E0;6.703764796E-1;3.064578056E0;9.131484985E0;9.655312596E0
6.215238480E0;6.368576288E-1;3.126827478E0;8.925583839E0;9.478854603E0
6.225266754E0;5.267243981E-1;3.160346270E0;8.825027466E0;9.388628063E0
6.235257391E0;5.363011956E-1;3.165134668E0;8.906430244E0;9.467322543E0
6.245227209E0;5.315127969E-1;3.184288263E0;9.059659004E0;9.617672217E0
6.255213118E0;5.554547906E-1;3.126827478E0;9.097966194E0;9.636315114E0
6.265280073E0;5.506663918E-1;3.083731890E0;9.045293808E0;9.572354774E0
6.275298050E0;4.788403511E-1;3.031059265E0;8.944737434E0;9.456475883E0
6.285315539E0;3.878606856E-1;2.987963676E0;8.825027466E0;9.325206304E0
6.295224283E0;3.974374831E-1;2.973598480E0;8.906430244E0;9.398124503E0
6.305476655E0;4.692635238E-1;3.007117271E0;9.045293808E0;9.543600087E0
6.315417841E0;5.554547906E-1;3.040636063E0;9.069235802E0;9.581494441E0
6.325297434E0;5.985504389E-1;3.064578056E0;9.002198219E0;9.528351068E0
6.335343231E0;6.081272364E-1;3.007117271E0;8.920795441E0;9.433618834E0
6.345429129E0;6.320692301E-1;3.016694069E0;8.935160637E0;9.451827877E0
6.355400578E0;6.129156351E-1;3.088520288E0;8.939949036E0;9.478254687E0
6.365408303E0;5.698199868E-1;3.074155092E0;8.978256226E0;9.507061018E0
6.375353165E0;5.698199868E-1;3.078943491E0;8.983044624E0;9.513131901E0
6.385424596E0;6.703764796E-1;3.078943491E0;8.954314232E0;9.492578207E0
6.395322812E0;7.086837292E-1;3.021482468E0;8.959102631E0;9.481408591E0
6.405318920E0;6.703764796E-1;2.968810081E0;8.944737434E0;9.448363122E0
6.415342474E0;6.272808313E-1;3.007117271E0;8.939949036E0;9.452984941E0
6.425488251E0;7.038952708E-1;2.992752075E0;8.916007042E0;9.431183123E0
6.435353139E0;7.613561153E-1;2.997540474E0;8.896853447E0;9.419071785E0
6.445364583E0;6.847416759E-1;2.964021683E0;8.896853447E0;9.402568636E0
6.455544305E0;5.506663918E-1;2.906560898E0;8.949525833E0;9.425780730E0
6.465554166E0;6.033388376E-1;2.896984100E0;9.011775017E0;9.485179154E0
6.475436097E0;6.129156351E-1;2.944868088E0;8.906430244E0;9.400660260E0
6.485432062E0;6.033388376E-1;3.011905670E0;8.863334656E0;9.380527423E0
6.495396045E0;6.607996821E-1;3.112462282E0;8.848969460E0;9.403634307E0
6.505382036E0;6.943184733E-1;3.102885485E0;8.815450668E0;9.371347126E0
6.515387532E0;7.613561153E-1;3.074155092E0;8.916007042E0;9.461779655E0
6.525339280E0;7.230489254E-1;2.992752075E0;8.978256226E0;9.491493538E0
6.535230654E0;6.272808313E-1;2.973598480E0;9.078812599E0;9.573954636E0
6.545270341E0;5.363011956E-1;2.944868088E0;9.069235802E0;9.550440045E0
6.555222684E0;4.165911078E-1;3.031059265E0;9.040505409E0;9.544192290E0
6.565169856E0;5.267243981E-1;2.978386879E0;8.896853447E0;9.396926532E0
6.575136442E0;6.177040339E-1;2.959233284E0;8.805873871E0;9.310318713E0
6.585130735E0;6.943184733E-1;2.949656487E0;8.820239067E0;9.326262313E0
6.595209381E0;6.895300746E-1;2.925714493E0;8.901641846E0;9.395450206E0
6.605329204E0;7.182605267E-1;2.964021683E0;8.930372238E0;9.436782875E0
6.615331116E0;7.182605267E-1;3.002328873E0;8.877699852E0;9.399118656E0
6.625231572E0;6.129156351E-1;3.021482468E0;8.681375504E0;9.212562212E0
6.635310800E0;5.698199868E-1;2.959233284E0;8.695740700E0;9.203133312E0
6.645224414E0;5.315127969E-1;2.877830505E0;8.753201485E0;9.229461008E0
6.655165721E0;5.267243981E-1;2.882618904E0;8.968679428E0;9.435260517E0
6.665307874E0;5.554547906E-1;2.911349297E0;9.117119789E0;9.586780377E0
6.675252451E0;6.703764796E-1;2.959233284E0;9.179368973E0;9.667847795E0
6.685234739E0;7.852981687E-1;2.959233284E0;9.169792175E0;9.667411411E0
6.695254383E0;8.140285611E-1;2.896984100E0;9.136273384E0;9.619077436E0
6.705282205E0;7.852981687E-1;2.925714493E0;8.987833023E0;9.484600200E0
6.715277616E0;6.177040339E-1;2.968810081E0;8.858546257E0;9.363185001E0
6.725264322E0;5.889736414E-1;3.031059265E0;8.848969460E0;9.372218025E0
6.735217175E0;6.416460276E-1;3.059789658E0;8.997409821E0;9.525093483E0
6.745307601E0;7.469909191E-1;3.088520288E0;9.064447403E0;9.605267291E0
6.755312814E0;7.565677166E-1;3.055001259E0;9.059659004E0;9.590768930E0
6.765648421E0;7.469909191E-1;2.920926094E0;9.059659004E0;9.548153013E0
6.775447724E0;7.709329724E-1;2.834734917E0;8.992621422E0;9.460301250E0
6.785511876E0;7.661445141E-1;2.858676910E0;8.944737434E0;9.421642047E0
6.795342452E0;7.469909191E-1;2.949656487E0;8.930372238E0;9.434512024E0
6.805296740E0;6.895300746E-1;2.987963676E0;8.935160637E0;9.446717645E0
6.815535384E0;7.182605267E-1;2.997540474E0;8.920795441E0;9.438312263E0
6.825417206E0;7.422025204E-1;2.935291290E0;8.815450668E0;9.320888907E0
6.835360617E0;6.847416759E-1;2.983175278E0;8.757989883E0;9.277423818E0
6.845525322E0;5.937620401E-1;3.021482468E0;8.767566681E0;9.292584956E0
6.855366675E0;6.224924326E-1;3.021482468E0;8.868123055E0;9.389380152E0
6.865600351E0;6.081272364E-1;2.935291290E0;8.935160637E0;9.424587487E0
6.875380189E0;7.517793179E-1;2.858676910E0;8.959102631E0;9.434125596E0
6.885284108E0;8.379706144E-1;2.863465309E0;8.983044624E0;9.465554345E0
6.895375568E0;7.948749661E-1;2.868253708E0;9.006986618E0;9.486016734E0
6.905377798E0;7.661445141E-1;2.868253708E0;8.983044624E0;9.460916841E0
6.915344413E0;7.134721279E-1;2.949656487E0;8.920795441E0;9.422850267E0
6.925245220E0;7.517793179E-1;2.978386879E0;8.892065048E0;9.407697984E0
6.935182124E0;8.427590132E-1;2.959233284E0;8.916007042E0;9.431992682E0
6.945327576E0;9.337386489E-1;2.906560898E0;8.944737434E0;9.451364552E0
6.955350802E0;9.097966552E-1;2.868253708E0;9.064447403E0;9.550854203E0
6.965331915E0;8.379706144E-1;2.829946518E0;9.165003777E0;9.628503844E0
6.975321971E0;7.613561153E-1;2.815581083E0;9.102754593E0;9.558624438E0
6.985326999E0;6.703764796E-1;2.849100113E0;8.992621422E0;9.456955964E0
6.995304513E0;6.129156351E-1;2.920926094E0;8.916007042E0;9.402268683E0
7.005232770E0;6.464344859E-1;2.916137695E0;9.016563416E0;9.498428945E0
7.015282899E0;6.991068721E-1;2.906560898E0;9.059659004E0;9.540139828E0
7.025302463E0;7.900865674E-1;2.882618904E0;8.954314232E0;9.439993215E0
7.035359745E0;7.852981687E-1;2.920926094E0;8.825027466E0;9.328966300E0
7.045296386E0;7.374141216E-1;2.920926094E0;8.700529099E0;9.207322924E0
7.055367707E0;6.368576288E-1;2.868253708E0;8.724471092E0;9.205914556E0
7.065429867E0;6.560112834E-1;2.954444885E0;8.963891029E0;9.460995601E0
7.075347447E0;6.464344859E-1;3.035847664E0;9.184157372E0;9.694482720E0
7.085343737E0;8.331822157E-1;3.021482468E0;9.255983353E0;9.772245225E0
7.095237382E0;9.672574997E-1;2.987963676E0;9.179368973E0;9.701769361E0
7.105233205E0;9.145850539E-1;2.887407303E0;9.016563416E0;9.511677170E0
7.115280116E0;6.943184733E-1;2.834734917E0;9.102754593E0;9.559180999E0
7.125276072E0;4.644751251E-1;2.806004286E0;9.179368973E0;9.609901765E0
7.135208550E0;4.596867263E-1;2.834734917E0;9.188945770E0;9.627240430E0
7.145207289E0;6.081272364E-1;2.868253708E0;9.169792175E0;9.627138028E0
7.155257658E0;6.991068721E-1;2.925714493E0;9.121908188E0;9.605090562E0
7.165350343E0;7.852981687E-1;2.940079689E0;9.016563416E0;9.516258593E0
7.175236685E0;8.236053586E-1;2.911349297E0;9.045293808E0;9.537904413E0
7.185198356E0;7.613561153E-1;2.920926094E0;9.016563416E0;9.508411445E0
7.195176192E0;7.613561153E-1;2.940079689E0;8.949525833E0;9.450806545E0
7.205156610E0;7.086837292E-1;2.959233284E0;8.748413086E0;9.262506452E0
7.215255819E0;5.841852427E-1;2.997540474E0;8.700529099E0;9.220939642E0
7.225187423E0;4.596867263E-1;2.964021683E0;8.748413086E0;9.248322439E0
7.235382225E0;4.548983276E-1;2.901772499E0;8.796297073E0;9.273729472E0
7.245401626E0;4.740519226E-1;2.806004286E0;8.901641846E0;9.345459476E0
7.255256327E0;4.548983276E-1;2.767697096E0;9.021351814E0;9.447320692E0
7.265374677E0;4.644751251E-1;2.796427488E0;9.016563416E0;9.451674966E0
7.275270352E0;1.072602391E0;3.078943491E0;6.574477673E0;7.338537019E0
7.285209190E0;1.249773264E0;3.160346270E0;8.365341187E0;9.029321953E0
7.295310109E0;1.115697980E0;3.021482468E0;9.227252960E0;9.773245903E0
7.305226568E0;8.762778044E-1;2.887407303E0;9.696516991E0;1.015516743E1
7.315175798E0;6.991068721E-1;2.686294317E0;1.007001209E1;1.044557663E1
7.325172913E0;6.560112834E-1;2.652775526E0;9.576807022E0;9.959056257E0
7.335164970E0;6.512228847E-1;2.825158119E0;9.294290543E0;9.735987178E0
7.345244499E0;6.416460276E-1;2.968810081E0;9.390059471E0;9.869081001E0
7.355221263E0;6.751648784E-1;3.102885485E0;9.423578262E0;9.944223107E0
7.365201145E0;6.655880809E-1;3.184288263E0;9.437943459E0;9.982859108E0
7.375148086E0;6.464344859E-1;3.150769472E0;9.145850182E0;9.694936893E0
7.385262557E0;6.560112834E-1;2.978386879E0;8.614337921E0;9.138268820E0
7.395278792E0;7.948749661E-1;2.896984100E0;8.183381081E0;8.717343001E0
7.405335410E0;6.129156351E-1;3.021482468E0;8.255207062E0;8.812120375E0
7.415273219E0;4.836287498E-1;3.083731890E0;8.523358345E0;9.076945335E0
