"Time (s)";"Acceleration x (m/s^2)";"Acceleration y (m/s^2)";"Acceleration z (m/s^2)";"Absolute acceleration (m/s^2)"
2.043556400E-2;9.145850539E-1;6.105214119E0;6.684611320E0;9.099128187E0
4.217656400E-2;8.140285611E-1;6.253654957E0;6.631938934E0;9.151691475E0
5.797806400E-2;4.692635238E-1;6.727706909E0;6.900089264E0;9.648496275E0
7.093181400E-2;6.751648784E-1;6.665457726E0;7.010222435E0;9.696772292E0
8.228368900E-2;1.268926859E0;6.339846134E0;7.077260017E0;9.586001968E0
9.301012600E-2;1.762132406E0;6.550535679E0;7.235277653E0;9.917856170E0
1.033703450E-1;1.493981838E0;6.852205276E0;7.560888767E0;1.031269789E1
1.135489540E-1;1.005564690E0;6.402095318E0;7.450755596E0;9.874803479E0
1.236612590E-1;1.733402014E0;6.358999729E0;7.225700855E0;9.780200046E0
1.337729110E-1;-7.182604820E-2;6.358999729E0;7.168240070E0;9.582572840E0
1.437552370E-1;-1.120486379E0;6.938396454E0;7.781155586E0;1.048538112E1
1.538244000E-1;-1.101332784E0;7.766790390E0;8.188169479E0;1.133940414E1
1.637854820E-1;-4.692635238E-1;7.987056732E0;6.856993675E0;1.053715549E1
1.738150230E-1;3.351882398E-1;7.704541206E0;5.473145008E0;9.456617928E0
1.837787930E-1;8.523358107E-1;7.388506413E0;4.841075897E0;8.874261613E0
1.938091780E-1;1.302445769E0;7.240066051E0;4.960785866E0;8.872672530E0
2.037908710E-1;1.910573006E0;7.019799232E0;5.554547787E0;9.153189149E0
2.138612170E-1;2.403778553E0;6.991068840E0;5.995080948E0;9.518098047E0
2.238548900E-1;1.695094824E0;7.958326340E0;6.483498096E0;1.040404018E1
2.338177270E-1;1.508347034E0;7.800309181E0;7.086836815E0;1.064627588E1
2.438021450E-1;5.698199868E-1;7.924807549E0;6.895300865E0;1.052009713E1
2.538748540E-1;-2.346317619E-1;8.001421928E0;6.636727333E0;1.039826691E1
2.638722090E-1;-7.038952708E-1;7.704541206E0;6.272808552E0;9.960097935E0
2.738573860E-1;-6.943184733E-1;7.527369976E0;6.014234543E0;9.659937579E0
2.838654750E-1;-2.777273953E-1;7.498639584E0;5.415684223E0;9.253991772E0
2.938880190E-1;1.197100878E-1;8.427590370E0;5.080495834E0;9.841242192E0
3.038787910E-1;4.548983276E-1;8.394071579E0;4.984727859E0;9.773171542E0
3.138671770E-1;7.709329724E-1;8.250418663E0;4.711789131E0;9.532297865E0
3.238623700E-1;9.193734527E-1;8.212111473E0;4.467580318E0;9.393790305E0
3.338054670E-1;4.213795066E-1;8.058882713E0;4.429273129E0;9.205520720E0
3.437410150E-1;3.447650373E-1;8.121131897E0;4.529829502E0;9.305428606E0
3.538142890E-1;2.298433632E-1;8.202534676E0;4.812345505E0;9.512784678E0
3.638429260E-1;-2.920926213E-1;8.456320763E0;4.730942726E0;9.694147617E0
3.738052450E-1;-6.847416759E-1;8.571242332E0;4.596867085E0;9.750192474E0
3.837414040E-1;-4.884171486E-1;8.676587105E0;4.510675907E0;9.791216076E0
3.937374840E-1;-3.878606856E-1;8.590395927E0;4.381389141E0;9.651005590E0
4.037800240E-1;-8.044517636E-1;8.350975990E0;4.280832767E0;9.418676755E0
4.137432940E-1;-1.182735682E0;8.331821442E0;4.309563160E0;9.454652128E0
4.239879290E-1;-8.427590132E-1;8.379706383E0;4.357447147E0;9.482461044E0
4.339577460E-1;5.554547906E-1;8.441955566E0;3.998316765E0;9.357439861E0
4.438321550E-1;1.321599364E0;8.418013573E0;3.505111217E0;9.213869005E0
4.538593590E-1;1.805228114E0;8.508993149E0;3.112462282E0;9.238464938E0
4.638059610E-1;1.991975784E0;8.657433510E0;3.562572241E0;9.571365810E0
4.737372620E-1;1.862688899E0;8.901641846E0;4.146757126E0;9.995220465E0
4.837404130E-1;1.900996208E0;8.906430244E0;5.564124584E0;1.067228976E1
4.937419880E-1;1.886630893E0;8.686163902E0;6.315904140E0;1.090410311E1
5.037597760E-1;1.709460020E0;8.566453934E0;6.253654957E0;1.074311812E1
5.137501700E-1;1.235408068E0;8.489839554E0;5.722142220E0;1.031244492E1
5.237298670E-1;7.422025204E-1;8.470685959E0;5.214571476E0;9.974725103E0
5.336932150E-1;6.895300746E-1;8.446743965E0;4.932055473E0;9.805514088E0
5.436918890E-1;1.010353088E0;8.437167168E0;4.707000732E0;9.714034130E0
5.537037260E-1;1.249773264E0;8.441955566E0;4.563348293E0;9.677432234E0
5.637661450E-1;1.422155857E0;8.528146744E0;4.582501888E0;9.785251030E0
5.741293540E-1;1.201889277E0;8.508993149E0;4.429273129E0;9.667779615E0
5.838904590E-1;1.005564690E0;8.532935143E0;4.232948780E0;9.578099909E0
5.937840110E-1;8.044517636E-1;8.437167168E0;3.993528366E0;9.369162250E0
6.037132870E-1;5.650315881E-1;8.528146744E0;3.696647406E0;9.312021779E0
6.137324250E-1;6.033388376E-1;7.589619160E0;3.280056238E0;8.290060655E0
6.237469940E-1;1.106121182E0;7.340622425E0;2.523488522E0;7.840678285E0
6.337117790E-1;1.201889277E0;7.651868820E0;1.661576033E0;7.921898080E0
6.437221710E-1;4.213795066E-1;8.528146744E0;1.628057212E-1;8.540102650E0
6.537828670E-1;1.819593310E-1;9.490615845E0;-2.250549555E0;9.755504682E0
6.639192150E-1;2.394201756E-1;9.643844604E0;-5.080495834E0;1.090286654E1
6.738553890E-1;1.436520964E-1;1.001733971E1;-6.564900875E0;1.197771490E1
6.837709760E-1;1.364694953E0;1.001733971E1;-7.580042362E0;1.263592218E1
6.937462700E-1;3.509899616E0;9.447520256E0;-7.829039574E0;1.276200983E1
7.039124170E-1;3.816357613E0;9.500192642E0;-6.818686485E0;1.230092399E1
7.138054900E-1;2.801215887E0;9.572018623E0;-3.964797974E0;1.073265922E1
7.237215270E-1;1.934514999E0;9.595960617E0;-2.489969730E-1;9.792180959E0
7.337615450E-1;1.465251446E0;9.686940193E0;2.724601507E0;1.016893433E1
7.439910540E-1;1.182735682E0;9.581595421E0;4.458003521E0;1.063389063E1
7.538248090E-1;6.655880809E-1;9.581595421E0;5.008669853E0;1.083220901E1
7.637371860E-1;2.394201607E-2;9.730035782E0;4.386177540E0;1.067299035E1
7.737133750E-1;-1.197100878E-1;9.749189377E0;2.336740971E0;1.002603523E1
7.836904690E-1;6.368576288E-1;9.758766174E0;9.576806426E-2;9.779993681E0
7.936875160E-1;1.675941229E0;9.686940193E0;-1.144428372E0;9.897237271E0
8.036820400E-1;2.547430515E0;9.610325813E0;-2.044648170E0;1.015028820E1
8.137558020E-1;2.308010340E0;9.605537415E0;-2.494758129E0;1.018906663E1
8.237191830E-1;1.786074519E0;9.730035782E0;-1.934514999E0;1.007998050E1
8.337093730E-1;1.968033791E0;9.648633003E0;-3.208230138E-1;9.852522684E0
8.436869680E-1;2.715024710E0;9.528923035E0;1.259350061E0;9.987877450E0
8.537667660E-1;3.236960649E0;9.509769440E0;1.900996208E0;1.022386500E1
8.637356650E-1;3.337517262E0;9.500192642E0;1.527500629E0;1.018459326E1
8.736961140E-1;2.825158119E0;9.481039047E0;2.968810201E-1;9.897462208E0
8.836958390E-1;1.891419291E0;9.437943459E0;-9.720458984E-1;9.674560294E0
8.937812010E-1;1.489193439E0;9.701305389E0;-1.283292055E0;9.898477755E0
9.037458820E-1;1.211466074E0;9.777919769E0;-1.010353088E0;9.904351489E0
9.137387230E-1;1.120486379E0;9.639056206E0;-2.154781520E-1;9.706354882E0
9.237031430E-1;1.225831270E0;9.495404243E0;5.075707436E-1;9.587647892E0
9.336833530E-1;7.134721279E-1;9.361329079E0;4.884171486E-1;9.401174177E0
9.436969580E-1;-6.703764945E-2;9.370905876E0;2.968810201E-1;9.375847126E0
9.536842610E-1;-5.937620401E-1;9.524134636E0;1.771709323E-1;9.544269666E0
9.636784120E-1;-1.719036818E0;9.428366661E0;3.050212860E0;1.005748398E1
9.736754880E-1;-1.407790542E0;9.849745750E0;-1.915361360E-2;9.949860925E0
9.837695260E-1;7.182604820E-2;9.998186111E0;-1.086967587E0;1.005735467E1
9.937630450E-1;5.267243981E-1;9.629479408E0;-4.644751251E-1;9.655053050E0
1.003767804E0;4.979939461E-1;9.548076630E0;-4.979939461E-1;9.574015002E0
1.013756684E0;-3.830722719E-2;9.442731857E0;-5.746083856E-1;9.460276273E0
1.023731124E0;-6.847416759E-1;9.452308655E0;-2.059013397E-1;9.479314608E0
1.033689344E0;-1.010353088E0;9.624691010E0;2.873041928E-1;9.681840429E0
1.043672454E0;-9.672574997E-1;9.734824181E0;1.436521020E-2;9.782770326E0
1.053689009E0;-6.799532771E-1;9.643844604E0;-5.458779931E-1;9.683184290E0
1.063700286E0;-6.991068721E-1;9.682151794E0;-7.230489254E-1;9.734249511E0
1.073679425E0;-6.224924326E-1;9.792284966E0;-5.554547906E-1;9.827760259E0
1.083712994E0;1.436521020E-2;9.782708168E0;-4.788403213E-2;9.782835905E0
1.093787779E0;2.968810201E-1;9.753977776E0;1.388636976E-1;9.759482769E0
1.103762671E0;3.208230138E-1;9.643844604E0;-4.309562966E-2;9.649275796E0
1.113714117E0;2.777273953E-1;9.490615845E0;-2.873041928E-1;9.499024440E0
1.123694840E0;4.788403213E-2;9.375694275E0;-3.399766386E-1;9.381978476E0
1.133680702E0;-2.346317619E-1;9.418789864E0;-3.734954596E-1;9.429112016E0
1.143675633E0;-1.388636976E-1;9.423578262E0;-2.011129409E-1;9.426746884E0
1.153678598E0;2.298433632E-1;9.399636269E0;-4.309562966E-2;9.402544719E0
1.163652581E0;3.639186621E-1;9.394847870E0;2.298433632E-1;9.404702614E0
1.173650572E0;1.340752989E-1;9.390059471E0;7.661445439E-2;9.391329130E0
1.183736068E0;-4.788403399E-3;9.471462250E0;2.394201607E-2;9.471493721E0
1.193748316E0;-2.873042040E-2;9.476250648E0;-9.097966552E-2;9.476730928E0
1.203706940E0;1.388636976E-1;9.414001465E0;-1.053448766E-1;9.415614916E0
1.213676252E0;3.256114423E-1;9.399636269E0;1.723825186E-1;9.406853912E0
1.224047908E0;4.501099288E-1;9.414001465E0;7.326257229E-1;9.453187980E0
1.233858236E0;3.687070608E-1;9.428366661E0;7.948749661E-1;9.468995142E0
1.243761900E0;9.576806426E-2;9.356540680E0;9.097966552E-1;9.401157108E0
1.253746232E0;5.746084079E-2;9.188945770E0;4.740519226E-1;9.201345083E0
1.263729898E0;2.154781520E-1;8.872911453E0;3.734954596E-1;8.883382652E0
1.273703731E0;3.256114423E-1;8.628703117E0;2.729389966E-1;8.639157135E0
1.283777647E0;3.878606856E-1;8.087613106E0;-1.005564705E-1;8.097532542E0
1.293788105E0;4.644751251E-1;7.809885979E0;-3.878606856E-1;7.833293819E0
1.303768834E0;6.655880809E-1;7.508216381E0;-2.729389966E-1;7.542600110E0
1.313810199E0;7.565677166E-1;7.580042362E0;2.106897533E-1;7.620618551E0
1.323734381E0;9.289502501E-1;7.632715225E0;4.692635238E-1;7.703343335E0
1.333728972E0;9.624691010E-1;7.637503624E0;1.484405100E-1;7.699340424E0
1.343721768E0;8.140285611E-1;7.541735172E0;-3.974374831E-1;7.595944211E0
1.353814666E0;5.746083856E-1;7.441178799E0;-5.602431893E-1;7.484329572E0
1.363809115E0;2.920926213E-1;7.283161640E0;-3.878606856E-1;7.299328564E0
1.373732839E0;1.053448766E-1;7.096413612E0;1.436521020E-2;7.097210019E0
1.383679701E0;7.661445439E-2;7.144298077E0;4.357447028E-1;7.157984229E0
1.393683632E0;1.819593310E-1;6.981492043E0;2.585737705E-1;6.988647990E0
1.403680598E0;6.320692301E-1;6.684611320E0;-4.979939461E-1;6.732869967E0
1.413675581E0;6.991068721E-1;6.660669327E0;-1.273715258E0;6.817302755E0
1.423716072E0;8.762778044E-1;7.010222435E0;-1.570596337E0;7.237254606E0
1.433808818E0;1.149216771E0;7.536946774E0;-1.388636947E0;7.749488914E0
1.443777691E0;1.283292055E0;8.216899872E0;-1.503558636E0;8.451329515E0
1.453724627E0;1.134851575E0;8.753201485E0;-1.752555609E0;8.998770777E0
1.463685595E0;6.272808313E-1;9.054870605E0;-1.465251446E0;9.194080961E0
1.473678579E0;-1.436520964E-1;9.447520256E0;-8.810662031E-1;9.489602340E0
1.483707571E0;-5.937620401E-1;9.720458984E0;-1.053448796E0;9.795388231E0
1.493698067E0;-1.436520964E-1;1.028070164E1;-1.244984865E0;1.035680691E1
1.503696315E0;1.723825186E-1;1.073560047E1;-1.091755986E0;1.079234749E1
1.513791939E0;1.120486379E0;1.111867237E1;-1.575384736E0;1.128548635E1
1.523782251E0;1.508347034E0;1.112346077E1;-2.820369720E0;1.157415118E1
1.533724907E0;1.235408068E0;1.109951878E1;-3.825934410E0;1.180522445E1
1.543700235E0;1.474828243E0;1.172679996E1;-2.997540474E0;1.219336724E1
1.553746899E0;1.594538331E0;1.216254425E1;-2.360682964E0;1.249171162E1
1.563700731E0;1.292868972E0;1.255998230E1;-2.432508945E0;1.285852889E1
1.573677647E0;8.523358107E-1;1.310585976E1;-2.949656487E0;1.346070242E1
1.583649105E0;8.236053586E-1;1.378102493E1;-3.222595453E0;1.417674488E1
1.593683334E0;2.394201756E-1;1.437957573E1;-3.313575268E0;1.475836377E1
1.603673949E0;-1.771709323E-1;1.475307083E1;-3.078943491E0;1.507197338E1
1.613660256E0;-6.560112834E-1;1.536119843E1;-2.997540474E0;1.566467417E1
1.623662410E0;-1.508347034E0;1.584482670E1;-4.108449936E0;1.643815698E1
1.633797987E0;-2.303221941E0;1.648168373E1;-4.812345505E0;1.732366587E1
1.643784775E0;-1.968033791E0;1.781286049E1;-4.137180328E0;1.839259136E1
1.653811169E0;-1.077390790E0;1.900038528E1;-3.739742994E0;1.939487276E1
1.663720366E0;-4.357447028E-1;1.980483627E1;-4.462791920E0;2.030610561E1
1.673807465E0;8.140286058E-2;2.058055687E1;-4.908113480E0;2.115787148E1
1.683753014E0;2.346317619E-1;2.114558983E1;-5.085284233E0;2.174973878E1
1.693710789E0;2.968810201E-1;2.150471878E1;-5.444414616E0;2.218519143E1
1.703713176E0;6.991068721E-1;2.125572205E1;-6.512228489E0;2.224193314E1
1.713717870E0;1.154005170E0;2.071463394E1;-7.910442352E0;2.220366829E1
1.723741217E0;1.374271750E0;2.037944412E1;-7.738059998E0;2.184234278E1
1.733712890E0;2.533065319E0;2.029325294E1;-8.164227486E0;2.202015317E1
1.743685727E0;3.485957623E0;2.006340981E1;-9.002198219E0;2.226503731E1
1.753691645E0;3.438073635E0;2.003467941E1;-8.082824707E0;2.187557507E1
1.763790104E0;2.408566952E0;2.031240654E1;-5.913678169E0;2.129240812E1
1.773726834E0;2.130839586E0;2.046084785E1;-2.997540474E0;2.078874747E1
1.783685699E0;2.896984100E0;2.083434296E1;-2.738966703E0;2.121236201E1
1.793678131E0;1.814804912E0;2.107855225E1;-8.810662031E-1;2.117487094E1
1.803666847E0;-2.513911724E0;1.889504051E1;1.886630893E0;1.915467787E1
1.813676705E0;-3.562572241E0;1.392946529E1;3.356670856E0;1.476445609E1
1.823669134E0;-1.355118155E0;7.297526836E0;2.638410330E0;7.877274415E0
1.833660849E0;2.011129409E-1;3.720589399E0;6.057330132E0;7.111573681E0
1.843699706E0;-1.149216771E0;-3.112462163E-1;9.346963882E0;9.422489438E0
1.853723135E0;-2.432508945E0;-1.881842494E0;1.044350815E1;1.088693223E1
1.863681349E0;-1.230619669E0;-3.093308687E0;1.203325748E1;1.248528210E1
1.874060956E0;6.272808313E-1;-5.171475410E-1;7.168240070E0;7.214193547E0
1.883880760E0;3.189076662E0;8.667010069E-1;5.693411827E0;6.583032646E0
1.893793662E0;5.123591423E0;2.782062292E0;2.011129379E0;6.167309060E0
1.903714613E0;4.802768707E0;3.529053211E0;7.326257229E-1;6.004793441E0
1.913672588E0;4.644751072E0;2.753331900E0;-7.134721279E-1;5.446429247E0
1.923723076E0;3.543418407E0;1.302445769E0;-7.374141216E-1;3.846551518E0
1.933715320E0;5.889736414E-1;-4.788403213E-2;-7.852981687E-1;9.827899290E-1
1.943687442E0;-1.288080573E0;-5.889736414E-1;-1.532289088E-1;1.424612443E0
1.953707503E0;-1.173158884E0;-6.033388376E-1;-1.235408068E0;1.807360676E0
1.963719033E0;-1.063025594E0;-6.272808313E-1;-2.442085743E0;2.736290816E0
1.973699798E0;-1.331176162E0;-9.528923035E-1;-1.886630893E0;2.497881070E0
1.983771181E0;-1.843535304E0;-1.120486379E0;-9.864110947E-1;2.372154925E0
1.993723372E0;-2.657563925E0;-5.219359994E-1;-7.661445141E-1;2.814611984E0
2.003729468E0;-2.695871115E0;-8.140286058E-2;-1.479616642E0;3.076298571E0
2.013710516E0;-1.235408068E0;1.005564705E-1;-2.336740971E0;2.645128175E0
2.023687540E0;-1.048660398E0;-2.202665508E-1;-2.552218914E0;2.768036735E0
2.033671552E0;-9.002198577E-1;-5.698199868E-1;-2.336740971E0;2.568160621E0
2.043696558E0;-7.134721279E-1;-4.501099288E-1;-1.853112102E0;2.036090834E0
2.053810561E0;-4.644751251E-1;-1.197100878E-1;-9.433154464E-1;1.058258796E0
2.063814562E0;-2.633621991E-1;1.771709323E-1;-4.788403399E-3;3.174462410E-1
2.073745563E0;-1.101332754E-1;3.591302633E-1;6.991068721E-1;7.936336075E-1
2.083686563E0;-1.771709323E-1;5.650315881E-1;9.337386489E-1;1.105675404E0
2.093677563E0;1.005564705E-1;6.607996821E-1;8.762778044E-1;1.102102815E0
2.103728563E0;7.374141216E-1;4.022258818E-1;5.410895944E-1;9.991712545E-1
2.113747063E0;9.959878922E-1;1.244984865E-1;-7.661445439E-2;1.006658596E0
2.123759813E0;5.650315881E-1;9.576806799E-3;-1.436520964E-1;5.830851872E-1
2.133850188E0;8.619125932E-2;1.675941199E-1;4.932055473E-1;5.279852594E-1
2.143802376E0;-2.537853718E-1;6.560112834E-1;8.283938169E-1;1.086735540E0
2.153775970E0;-3.591302633E-1;1.249773264E0;7.134721279E-1;1.483222921E0
2.163748267E0;-2.346317619E-1;1.747767210E0;4.309563041E-1;1.815341736E0
2.173741415E0;-2.585737705E-1;2.106897593E0;8.140286058E-2;2.124265587E0
2.183766989E0;-9.097966552E-2;2.379836559E0;-7.517793179E-1;2.497412960E0
2.193708276E0;3.016694188E-1;2.935291290E0;-1.364694953E0;3.251050863E0
2.203689920E0;2.059013397E-1;4.400542736E0;-6.416460276E-1;4.451840222E0
2.213695242E0;1.757344007E0;6.981492043E0;-1.484405041E0;7.350710675E0
2.223685403E0;2.877830505E0;1.154484081E1;-2.873042040E-2;1.189815462E1
2.233677483E0;2.552218914E0;1.675462341E1;3.021482468E0;1.721512659E1
2.243666523E0;-7.517793179E-1;2.461718178E1;1.292868853E-1;2.462899766E1
2.253783043E0;-3.208230138E-1;2.990357971E1;-7.307103634E0;3.078507383E1
2.263730803E0;1.987187386E0;3.196738052E1;-6.086060524E0;3.260218496E1
2.273733183E0;6.349422932E0;3.911646652E1;-5.099649429E0;3.995521930E1
2.283669373E0;5.109226227E0;3.307350159E1;-1.043871999E0;3.348209027E1
2.293666468E0;4.118026793E-1;2.615425873E1;4.908113480E0;2.661398897E1
2.303670516E0;-1.265096188E1;3.123475456E1;1.389594650E1;3.645207893E1
2.313756540E0;-1.566765594E1;3.088041306E1;2.024536896E1;4.011172294E1
2.323715552E0;4.347870350E0;1.822466278E1;-1.551921558E1;2.432875587E1
2.333754558E0;7.857769966E0;1.313937855E1;-3.365768814E1;3.697604344E1
2.343720561E0;3.974374771E0;1.015620327E1;-4.659116745E0;1.185965803E1
2.353734562E0;1.532289028E0;6.828263283E0;1.024718285E0;7.072703634E0
2.363705063E0;-5.793967843E-1;5.487510204E0;-2.193088770E0;5.937853756E0
2.373696813E0;-2.106897533E-1;7.235277653E0;-3.303998232E0;7.956760471E0
2.383853688E0;-4.165911078E-1;9.418789864E0;-2.925714493E0;9.871522473E0
2.393870126E0;-7.900865674E-1;1.128626728E1;-2.260126352E0;1.153742766E1
2.403828345E0;-8.858546019E-1;1.314895535E1;-7.613561153E-1;1.320073590E1
2.413761954E0;-7.757213712E-1;1.436042213E1;1.489193439E0;1.445825593E1
2.425026259E0;-1.723825186E-1;1.397256088E1;2.810792685E0;1.425351637E1
2.434362411E0;1.489193439E0;1.208592987E1;1.000776291E0;1.221838578E1
2.444022487E0;1.814804912E0;1.022324085E1;-8.236053586E-1;1.041568510E1
2.453939025E0;6.177040339E-1;9.074024200E0;-9.720458984E-1;9.146821672E0
2.463861294E0;-3.016694188E-1;8.149862289E0;2.633621991E-1;8.159694812E0
2.473785429E0;-5.363011956E-1;7.230489254E0;1.608903527E0;7.426719625E0
2.483724996E0;-6.799532771E-1;6.521805286E0;1.934514999E0;6.836565580E0
2.494971780E0;-2.346317619E-1;5.951985359E0;5.889736414E-1;5.985655497E0
2.504322172E0;3.878606856E-1;5.870582581E0;-9.959878922E-1;5.967090382E0
2.514005368E0;6.607996821E-1;6.330269337E0;-9.289502501E-1;6.432100331E0
2.523854466E0;8.523358107E-1;6.928819656E0;-2.059013397E-1;6.984082869E0
2.533809515E0;1.067813993E0;7.647080421E0;-2.968810201E-1;7.726978972E0
2.543796039E0;1.072602391E0;8.327033043E0;-1.125274777E0;8.470903052E0
2.553948301E0;7.709329724E-1;8.877699852E0;-1.537077546E0;9.042704225E0
2.563868932E0;3.543418646E-1;9.409213066E0;-1.230619669E0;9.495960902E0
2.573774748E0;-2.202665508E-1;9.983820915E0;-6.224924326E-1;1.000563313E1
2.583729656E0;-7.852981687E-1;1.053927612E1;-4.213795066E-1;1.057688967E1
2.593776610E0;-1.115697980E0;1.083136845E1;-5.075707436E-1;1.090050239E1
2.603724087E0;-1.292868972E0;1.075954247E1;-7.182605267E-1;1.086071648E1
2.613757325E0;-1.235408068E0;1.048181534E1;-1.063025594E0;1.060776646E1
2.623725944E0;-9.672574997E-1;1.032379818E1;-1.288080573E0;1.044871033E1
2.633798754E0;-6.129156351E-1;1.001733971E1;-1.479616642E0;1.014455646E1
2.643731659E0;-3.495534360E-1;1.001255131E1;-1.604115129E0;1.014625826E1
2.653773611E0;-2.394201756E-1;9.792284966E0;-1.527500629E0;9.913597987E0
2.663761587E0;-3.495534360E-1;9.758766174E0;-1.436521053E0;9.870121458E0
2.673880075E0;-4.740519226E-1;9.797073364E0;-1.297657371E0;9.894002546E0
2.683892819E0;-4.118026793E-1;9.787496567E0;-1.125274777E0;9.860573706E0
2.693771691E0;-3.208230138E-1;9.715670586E0;-1.034295082E0;9.775834934E0
2.703711127E0;-7.661445439E-2;9.576807022E0;-1.158793569E0;9.646963514E0
2.713706345E0;5.267243832E-2;9.385271072E0;-1.292868972E0;9.474048642E0
2.723691454E0;-9.097966552E-2;9.198522568E0;-1.359906554E0;9.298948358E0
2.733717509E0;-8.140286058E-2;9.136273384E0;-1.259350061E0;9.223019048E0
2.743688536E0;-1.915361360E-2;9.145850182E0;-1.230619669E0;9.228291672E0
2.753858050E0;1.628057212E-1;9.246406555E0;-1.436521053E0;9.358746317E0
2.763887307E0;2.298433632E-1;9.270348549E0;-1.623268723E0;9.414201588E0
2.773769935E0;1.340752989E-1;9.399636269E0;-1.628057122E0;9.540529763E0
2.783708749E0;1.340752989E-1;9.615114212E0;-9.864110947E-1;9.666509419E0
2.793756656E0;1.292868853E-1;9.739612579E0;-4.884171486E-1;9.752708322E0
2.803715610E0;2.442085743E-1;9.768342972E0;-4.501099288E-1;9.781756549E0
2.813675587E0;3.830722570E-1;9.816226959E0;-5.889736414E-1;9.841338629E0
2.823789075E0;-1.436521020E-2;9.821015358E0;-7.326257229E-1;9.848314042E0
2.833923319E0;-2.920926213E-1;9.734824181E0;-7.374141216E-1;9.767082446E0
2.843834441E0;-5.075707436E-1;9.658209801E0;-7.613561153E-1;9.701459053E0
2.853807502E0;-4.309563041E-1;9.744400978E0;-8.667010069E-1;9.792356427E0
2.863724033E0;-1.771709323E-1;9.821015358E0;-1.039083481E0;9.877420042E0
2.873792298E0;-9.576806799E-3;9.878476143E0;-9.193734527E-1;9.921170806E0
2.883765431E0;-5.027823448E-1;9.974244118E0;-9.337386489E-1;1.003046378E1
2.893787497E0;-2.968810201E-1;9.605537415E0;-6.895300746E-1;9.634829479E0
2.903768530E0;2.442085743E-1;9.528923035E0;-3.687070608E-1;9.539180097E0
2.913960547E0;2.873041928E-1;9.533711433E0;-2.968810201E-1;9.542658735E0
2.924085555E0;9.097966552E-2;9.576807022E0;-3.687070608E-1;9.584333828E0
2.933875059E0;-2.729389966E-1;9.739612579E0;-2.920926213E-1;9.747813447E0
2.943783311E0;-6.224924326E-1;9.773131371E0;-2.059013397E-1;9.795100254E0
2.953787437E0;-9.050082564E-1;9.605537415E0;-1.963245422E-1;9.650074212E0
2.963821000E0;-1.163581967E0;9.773131371E0;-3.160346150E-1;9.847227917E0
2.973739282E0;-1.264138460E0;9.854534149E0;-3.687070608E-1;9.942124232E0
2.983705423E0;-1.225831270E0;9.983820915E0;-4.788403511E-1;1.007018522E1
2.993874993E0;-1.154005170E0;1.006043530E1;-6.416460276E-1;1.014671355E1
3.003793778E0;-9.528923035E-1;1.004128170E1;-5.219359994E-1;1.009988906E1
3.013984171E0;-5.554547906E-1;9.950302124E0;-1.723825186E-1;9.967284390E0
3.023898867E0;1.259350061E0;9.605537415E0;2.782062292E0;1.007929473E1
3.033797715E0;9.193734527E-1;9.835380554E0;1.580173135E0;1.000384453E1
3.043828639E0;9.624691010E-1;9.801861763E0;8.140285611E-1;9.882584849E0
3.053782101E0;8.140285611E-1;9.710882187E0;-2.154781520E-1;9.747323026E0
3.063801332E0;4.405331016E-1;9.715670586E0;-1.561019540E0;9.850132301E0
3.073807448E0;-4.788403213E-2;9.624691010E0;-2.652775526E0;9.983696104E0
3.083973506E0;-4.692635238E-1;9.696516991E0;-2.863465309E0;1.012136767E1
3.093902035E0;-8.523358107E-1;9.744400978E0;-2.039859772E0;9.992039564E0
3.103887299E0;-1.244984865E0;9.854534149E0;-9.145850539E-1;9.974883279E0
3.113855931E0;-1.484405100E-1;9.720458984E0;-1.063025594E0;9.779538888E0
3.123937747E0;3.366247654E0;9.145850182E0;-2.403778553E0;1.003774627E1
3.133809655E0;4.007893562E0;9.088389397E0;-2.873042107E0;1.034003886E1
3.143819609E0;-5.698199868E-1;1.000297451E1;-1.738190413E0;1.016884948E1
3.153751586E0;-8.954314590E-1;9.648633003E0;8.619125932E-2;9.690477040E0
3.163810075E0;-9.576806799E-3;9.485827446E0;1.029506683E0;9.541535414E0
3.173863819E0;-3.208230138E-1;9.533711433E0;1.115697980E0;9.604132604E0
3.183782691E0;-3.639186621E-1;9.562441826E0;5.841852427E-1;9.587179088E0
3.193751627E0;-1.867477298E-1;9.797073364E0;9.385270476E-1;9.843696168E0
3.203699095E0;2.346317619E-1;9.902418137E0;1.182735682E0;9.975560170E0
3.213936829E0;4.453215301E-1;9.940725327E0;1.106121182E0;1.001198459E1
3.223949196E0;8.571242094E-1;1.005564690E1;1.053448796E0;1.014694293E1
3.233881380E0;5.889736414E-1;9.457097054E0;1.546654344E0;9.600818418E0
3.243762972E0;2.154781520E-1;9.270348549E0;2.178723574E0;9.525367681E0
3.253818768E0;1.915361360E-2;9.409213066E0;1.838746905E0;9.587212711E0
3.263960166E0;1.436520964E-1;9.342175484E0;7.278373241E-1;9.371586091E0
3.273882365E0;5.267243832E-2;9.433155060E0;-2.633621991E-1;9.436977716E0
3.283831964E0;-1.053448766E-1;9.610325813E0;-3.160346150E-1;9.616097839E0
3.293794764E0;-1.149216816E-1;9.720458984E0;-2.106897533E-1;9.723421210E0
3.303986164E0;-3.830722719E-2;9.749189377E0;2.250549644E-1;9.751861909E0
3.314060864E0;-6.416460276E-1;9.265560150E0;1.010353088E0;9.342543973E0
3.323940714E0;-8.427590132E-1;9.366117477E0;1.182735682E0;9.478041098E0
3.333965639E0;-1.383848548E0;9.442731857E0;1.201889277E0;9.618979133E0
3.344122101E0;-1.134851575E0;9.016563416E0;2.116474390E0;9.330903909E0
3.353967832E0;-1.029506683E0;9.203310966E0;2.944868088E0;9.717667663E0
3.364021698E0;-6.129156351E-1;9.217676163E0;2.758120298E0;9.640977492E0
3.373890631E0;-6.655880809E-1;9.155426979E0;1.460463047E0;9.295041849E0
3.383882097E0;-7.852981687E-1;9.203310966E0;5.698199868E-1;9.254313631E0
3.393853830E0;-1.072602391E0;9.097966194E0;5.458779931E-1;9.177224392E0
3.403820697E0;-1.221042871E0;8.944737434E0;1.431732655E0;9.140521422E0
3.414072630E0;-1.058237195E0;8.777143478E0;2.485181332E0;9.183367566E0
3.424633097E0;-8.810662031E-1;8.686163902E0;3.442862034E0;9.385042353E0
3.434213330E0;-6.703764796E-1;8.772355080E0;3.969586372E0;9.652006747E0
3.444021947E0;-6.895300746E-1;8.825027466E0;3.931279182E0;9.685634595E0
3.453847255E0;-8.810662031E-1;8.868123055E0;4.070142746E0;9.797241762E0
3.463800909E0;-9.193734527E-1;9.030928612E0;4.343081951E0;1.006306514E1
3.473758236E0;-9.002198577E-1;8.916007042E0;4.429273129E0;9.996201169E0
3.483841400E0;-8.810662031E-1;8.796297073E0;4.194641590E0;9.784995551E0
3.493802982E0;-7.565677166E-1;8.877699852E0;4.505887508E0;9.984436469E0
3.503881773E0;-7.182605267E-1;8.887276649E0;5.070919037E0;1.025737804E1
3.513951168E0;-8.044517636E-1;8.743624687E0;5.147533417E0;1.017817349E1
3.523925366E0;-7.326257229E-1;8.719682693E0;4.903325081E0;1.003056347E1
3.533852465E0;-5.793967843E-1;8.767566681E0;4.793191910E0;1.000902667E1
3.543978514E0;-5.410895944E-1;8.777143478E0;4.774038315E0;1.000612150E1
3.553878539E0;-6.655880809E-1;8.690952301E0;4.802768707E0;9.951997119E0
3.563785051E0;-8.044517636E-1;8.571242332E0;4.683058739E0;9.800223309E0
3.573783307E0;-9.097966552E-1;8.628703117E0;4.328716755E0;9.696392947E0
3.583891435E0;-7.613561153E-1;8.786720276E0;4.266467571E0;9.797390565E0
3.593819999E0;-2.202665508E-1;8.743624687E0;4.472368717E0;9.823521363E0
3.603876781E0;-4.453215301E-1;8.518569946E0;4.309563160E0;9.557022540E0
3.613788672E0;-6.799532771E-1;8.374917984E0;4.242525578E0;9.412789755E0
3.623737118E0;-6.320692301E-1;8.494627953E0;4.323928356E0;9.552725893E0
3.633690341E0;-3.878606856E-1;8.418013573E0;4.357447147E0;9.486871669E0
3.643666452E0;-4.692635238E-1;8.245630264E0;4.290409565E0;9.306892121E0
3.653747508E0;-3.782838583E-1;8.178592682E0;4.299986362E0;9.247829997E0
3.663794536E0;1.043871999E0;8.868123055E0;4.893748283E0;1.018243819E1
3.673788550E0;-7.182605267E-1;7.738059998E0;4.730942726E0;9.098092646E0
3.683734557E0;-5.363011956E-1;7.881711960E0;3.457227230E0;8.623306936E0
3.693690060E0;9.576806426E-2;8.279149055E0;4.505887508E0;9.426372730E0
3.703731812E0;-2.873042040E-2;8.197746277E0;5.061342239E0;9.634368413E0
3.713729688E0;2.202665508E-1;8.087613106E0;5.578489780E0;9.827387818E0
3.723806626E0;1.005564705E-1;8.058882713E0;6.023811340E0;1.006190863E1
3.733717095E0;9.097966552E-2;7.886500359E0;6.272808552E0;1.007736535E1
3.743679329E0;-1.101332754E-1;7.838616371E0;5.889736176E0;9.805357116E0
3.753698446E0;-8.619125932E-2;7.876923561E0;5.688623428E0;9.716675884E0
3.763704505E0;-1.723825186E-1;7.948749542E0;5.688623428E0;9.776132749E0
3.773685534E0;-3.543418646E-1;7.881711960E0;5.961562157E0;9.888739299E0
3.783668549E0;-5.123591423E-1;7.800309181E0;6.435614109E0;1.012543649E1
3.793708056E0;-7.374141216E-1;7.924807549E0;6.761225700E0;1.044320484E1
3.803707310E0;-4.070142806E-1;7.958326340E0;6.497863293E0;1.028216155E1
3.813673437E0;-6.703764945E-2;8.006210327E0;6.287173748E0;1.018000253E1
3.823727500E0;-6.703764945E-2;7.924807549E0;6.244078159E0;1.008937960E1
3.833692032E0;-3.016694188E-1;7.924807549E0;6.138733387E0;1.002883975E1
3.843723798E0;-8.523358107E-1;7.805097580E0;6.028599739E0;9.898991837E0
3.853692181E0;-8.092401624E-1;7.738059998E0;5.750872612E0;9.674966561E0
3.863671372E0;-4.884171486E-1;7.651868820E0;5.573701382E0;9.479229655E0
3.873669968E0;-1.819593310E-1;7.790732384E0;5.549759388E0;9.567050200E0
3.883740766E0;7.182604820E-2;7.800309181E0;5.262455463E0;9.409751315E0
3.893703665E0;1.244984865E-1;7.814674377E0;5.161899090E0;9.366420752E0
3.903709114E0;-5.267243832E-2;7.805097580E0;5.238513470E0;9.400231167E0
3.913697339E0;-3.782838583E-1;7.771578789E0;5.401319027E0;9.471788784E0
3.923685951E0;-6.655880809E-1;7.685387611E0;5.544970989E0;9.500257549E0
3.933680257E0;-9.289502501E-1;7.618350029E0;5.736507416E0;9.581739042E0
3.943697910E0;-9.959878922E-1;7.742848396E0;6.143521786E0;9.934110584E0
3.953728737E0;-7.326257229E-1;7.958326340E0;6.205770969E0;1.011846292E1
3.963779650E0;-1.244984865E-1;7.872135162E0;6.042964935E0;9.924889778E0
3.973765107E0;2.729389966E-1;7.618350029E0;5.822698593E0;9.592578995E0
3.983704335E0;2.298433632E-1;7.445967197E0;5.463568211E0;9.238280850E0
3.993983949E0;-1.436521020E-2;7.460332394E0;5.147533417E0;9.063876988E0
4.004005756E0;-2.154781520E-1;7.493851185E0;5.233725071E0;9.143091082E0
4.013829660E0;-3.543418646E-1;7.517793179E0;5.492298603E0;9.317087333E0
4.023787112E0;-2.633621991E-1;7.522581577E0;5.770026207E0;9.484292049E0
4.033827838E0;3.351882473E-2;7.560888767E0;5.999869347E0;9.652284426E0
4.043787201E0;-1.005564705E-1;7.536946774E0;6.066906929E0;9.675899853E0
4.053740882E0;-2.681505978E-1;7.489062786E0;6.133944988E0;9.684175095E0
4.063684223E0;-3.639186621E-1;7.532158375E0;6.100425720E0;9.699538161E0
4.073717893E0;-2.729389966E-1;7.426813602E0;6.023811340E0;9.566522829E0
4.083720728E0;-1.053448766E-1;7.259219646E0;6.019022942E0;9.430588772E0
4.093696646E0;-5.746084079E-2;7.273584843E0;6.071695328E0;9.474904874E0
4.103758605E0;4.788403213E-2;7.216124058E0;6.282385349E0;9.567816103E0
4.113793584E0;5.746084079E-2;7.182605267E0;6.473921299E0;9.669786820E0
4.123818574E0;1.580173075E-1;7.158663273E0;6.761225700E0;9.848126842E0
4.133728569E0;3.160346150E-1;7.015010834E0;7.019799232E0;9.929140755E0
4.143694066E0;4.261679053E-1;7.024587631E0;6.943184853E0;9.886064251E0
4.153703315E0;5.315127969E-1;7.105990410E0;6.847416878E0;9.882546405E0
4.163725439E0;4.788403511E-1;7.335834026E0;6.636727333E0;9.904034463E0
4.173685001E0;3.160346150E-1;7.426813602E0;6.564900875E0;9.917427170E0
4.183658282E0;1.915361360E-2;7.484274387E0;6.478709698E0;9.898909501E0
4.193679923E0;-9.576806799E-3;7.498639584E0;6.440402508E0;9.884759571E0
4.203770243E0;2.298433632E-1;7.412448406E0;6.363788128E0;9.772155273E0
4.213757903E0;4.118026793E-1;7.292738438E0;6.110002518E0;9.522906391E0
4.223814733E0;4.070142806E-1;7.211335659E0;5.951985359E0;9.359228191E0
4.233731148E0;3.303998411E-1;7.216124058E0;5.865794182E0;9.305329218E0
4.243682356E0;3.351882398E-1;7.201758862E0;5.932831764E0;9.336818227E0
4.253670460E0;3.639186621E-1;7.192182064E0;5.966350555E0;9.351858563E0
4.263645012E0;3.064578176E-1;7.163451672E0;6.023811340E0;9.364574700E0
4.273686288E0;2.442085743E-1;7.235277653E0;6.052541733E0;9.436214388E0
4.283727926E0;2.298433632E-1;7.354987621E0;6.081272125E0;9.546231798E0
4.293706245E0;3.830722570E-1;7.287950039E0;5.956773758E0;9.420409425E0
4.303686404E0;5.075707436E-1;7.216124058E0;5.913678169E0;9.343535946E0
4.313665984E0;6.512228847E-1;7.120356083E0;6.004657745E0;9.336995054E0
4.323665274E0;6.129156351E-1;7.125144482E0;6.071695328E0;9.381302341E0
4.333659419E0;5.123591423E-1;7.043741226E0;6.196194172E0;9.395191566E0
4.343652991E0;4.261679053E-1;7.048529625E0;6.397306919E0;9.528322243E0
4.353679277E0;3.878606856E-1;7.024587631E0;6.521805286E0;9.593185680E0
4.363690920E0;5.841852427E-1;7.029376030E0;6.622362137E0;9.675178553E0
4.373730742E0;7.469909191E-1;6.890512466E0;6.698976517E0;9.639161989E0
4.383862153E0;7.565677166E-1;6.866570473E0;6.761225700E0;9.666248380E0
4.393773358E0;6.033388376E-1;6.861782074E0;6.818686485E0;9.692396833E0
4.403811961E0;6.224924326E-1;6.871358871E0;6.962338448E0;9.801899113E0
4.413783262E0;3.878606856E-1;6.856993675E0;6.991068840E0;9.800196003E0
4.423716913E0;2.825157940E-1;6.828263283E0;7.000645638E0;9.783354945E0
4.433737238E0;2.059013397E-1;6.785167694E0;6.914454460E0;9.689714984E0
4.443693401E0;2.585737705E-1;6.813898087E0;6.895300865E0;9.697486352E0
4.453665482E0;4.644751251E-1;6.861782074E0;6.722918510E0;9.617558093E0
4.463646023E0;8.188169599E-1;6.885724068E0;6.607996464E0;9.578584155E0
4.473690293E0;8.044517636E-1;6.842628479E0;6.517016888E0;9.483681577E0
4.483831428E0;6.895300746E-1;6.885724068E0;6.536170483E0;9.518937558E0
4.493771996E0;3.064578176E-1;6.880935669E0;6.612784863E0;9.548304337E0
4.503712780E0;2.968810201E-1;6.876147270E0;6.761225700E0;9.647990080E0
4.513721172E0;3.303998411E-1;6.837840080E0;6.708553314E0;9.584879164E0
4.523741368E0;4.836287498E-1;6.818686485E0;6.698976517E0;9.571032783E0
4.533701466E0;4.788403511E-1;6.852205276E0;6.713341713E0;9.604736446E0
4.543680515E0;5.410895944E-1;6.871358871E0;6.627150536E0;9.561771536E0
4.553686039E0;5.123591423E-1;6.861782074E0;6.732495308E0;9.626684694E0
4.563781801E0;4.932055473E-1;6.842628479E0;6.751648903E0;9.625465138E0
4.573750682E0;5.027823448E-1;6.924031258E0;6.737283707E0;9.673985254E0
4.583718623E0;5.027823448E-1;6.952761650E0;6.689399719E0;9.661353593E0
4.593705593E0;5.554547906E-1;7.019799232E0;6.564900875E0;9.627254790E0
4.603764078E0;5.123591423E-1;6.957550049E0;6.373364925E0;9.449327756E0
4.613769821E0;5.554547906E-1;6.761225700E0;6.258443356E0;9.229887119E0
4.623704692E0;5.315127969E-1;6.756437302E0;6.272808552E0;9.234721327E0
4.633736128E0;2.777273953E-1;6.876147270E0;6.402095318E0;9.399221151E0
4.643700346E0;8.619125932E-2;6.895300865E0;6.526593685E0;9.494684201E0
4.653828955E0;1.388636976E-1;6.919242859E0;6.100425720E0;9.225529732E0
4.663868259E0;1.005564705E-1;6.890512466E0;6.253654957E0;9.305776377E0
4.673775911E0;3.878606856E-1;6.837840080E0;6.215347767E0;9.248623721E0
4.683710737E0;4.118026793E-1;6.837840080E0;6.301538944E0;9.307794125E0
4.693702150E0;3.639186621E-1;6.871358871E0;6.497863293E0;9.464155372E0
4.703862857E0;4.022258818E-1;6.823474884E0;6.718130112E0;9.584094498E0
4.713754210E0;4.692635238E-1;6.751648903E0;7.015010834E0;9.747581657E0
4.723748387E0;6.129156351E-1;6.718130112E0;7.072471619E0;9.773883188E0
4.733773475E0;7.278373241E-1;6.694188118E0;7.024587631E0;9.730710823E0
4.743781019E0;7.661445141E-1;6.823474884E0;6.962338448E0;9.778596196E0
4.753792291E0;9.768342972E-1;6.837840080E0;6.828263283E0;9.712643392E0
4.763708427E0;1.005564690E0;6.742072105E0;6.732495308E0;9.580876249E0
4.773692995E0;8.954314590E-1;6.603208065E0;6.713341713E0;9.459022740E0
4.783672779E0;7.517793179E-1;6.507440090E0;6.991068840E0;9.580552813E0
4.793716171E0;7.996633649E-1;6.550535679E0;7.235277653E0;9.792763751E0
4.803756367E0;8.236053586E-1;6.607996464E0;7.388506413E0;9.946555688E0
4.813957465E0;7.182605267E-1;6.641515732E0;7.283161640E0;9.882817052E0
4.823899514E0;6.655880809E-1;6.789956093E0;6.895300865E0;9.700086869E0
4.833782039E0;7.230489254E-1;6.804321289E0;6.550535679E0;9.472650402E0
4.843724801E0;7.613561153E-1;6.746860504E0;6.344634533E0;9.292694827E0
4.853743182E0;7.948749661E-1;6.698976517E0;6.473921299E0;9.349853986E0
4.863826373E0;6.224924326E-1;6.670246124E0;6.727706909E0;9.494299366E0
4.873745468E0;4.118026793E-1;6.631938934E0;6.962338448E0;9.624258524E0
4.883795016E0;1.580173075E-1;6.617573261E0;7.010222435E0;9.641600693E0
4.893833790E0;1.292868853E-1;6.526593685E0;6.909666061E0;9.505610202E0
4.903836177E0;1.771709323E-1;6.574477673E0;6.746860504E0;9.422063090E0
4.913793870E0;3.495534360E-1;6.665457726E0;6.746860504E0;9.490555356E0
4.923723717E0;3.926490843E-1;6.660669327E0;6.708553314E0;9.461679383E0
4.933675640E0;2.920926213E-1;6.636727333E0;6.698976517E0;9.434392093E0
4.943726102E0;4.309563041E-1;6.665457726E0;6.766014099E0;9.507523169E0
4.953686333E0;5.793967843E-1;6.646304131E0;6.952761650E0;9.635868087E0
4.963808948E0;6.224924326E-1;6.670246124E0;7.129932880E0;9.783436158E0
4.973739756E0;5.793967843E-1;6.641515732E0;7.101202011E0;9.740251632E0
4.983695160E0;4.692635238E-1;6.574477673E0;6.866570473E0;9.518075172E0
4.993754862E0;5.315127969E-1;6.574477673E0;6.627150536E0;9.350154370E0
5.003704713E0;6.416460276E-1;6.512228489E0;6.564900875E0;9.269236917E0
5.013670638E0;7.469909191E-1;6.517016888E0;6.631938934E0;9.328028654E0
5.023678601E0;8.188169599E-1;6.579266071E0;6.785167694E0;9.486606553E0
5.033654082E0;7.900865674E-1;6.588842869E0;7.015010834E0;9.656472655E0
5.043705823E0;7.996633649E-1;6.512228489E0;6.995857239E0;9.591173020E0
5.053860193E0;6.655880809E-1;6.445190907E0;6.938396454E0;9.493410276E0
5.063839878E0;5.315127969E-1;6.469132900E0;6.785167694E0;9.389924759E0
5.073839221E0;5.650315881E-1;6.598419666E0;6.722918510E0;9.436950571E0
5.083914392E0;6.703764796E-1;6.708553314E0;6.823474884E0;9.592387695E0
5.093869978E0;7.948749661E-1;6.679822922E0;6.919242859E0;9.650273686E0
5.103875271E0;7.422025204E-1;6.646304131E0;6.885724068E0;9.598823840E0
5.113831417E0;5.410895944E-1;6.497863293E0;6.962338448E0;9.538823931E0
5.123742990E0;3.926490843E-1;6.473921299E0;6.818686485E0;9.410649057E0
5.133740277E0;4.022258818E-1;6.445190907E0;6.751648903E0;9.342753041E0
5.143702920E0;4.740519226E-1;6.574477673E0;6.622362137E0;9.343669631E0
5.153712242E0;7.469909191E-1;6.588842869E0;6.713341713E0;9.436090437E0
5.163665403E0;7.948749661E-1;6.627150536E0;6.794744492E0;9.524678637E0
5.173774483E0;7.565677166E-1;6.584054470E0;6.971915245E0;9.619239583E0
5.183844523E0;7.374141216E-1;6.526593685E0;6.866570473E0;9.502104755E0
5.193814543E0;6.607996821E-1;6.469132900E0;6.823474884E0;9.425823370E0
5.203714553E0;6.224924326E-1;6.435614109E0;6.794744492E0;9.379401820E0
5.213680558E0;5.602431893E-1;6.497863293E0;6.938396454E0;9.522470538E0
5.223718561E0;8.379706144E-1;6.531382084E0;7.120356083E0;9.698485316E0
5.233685062E0;1.264138460E0;6.440402508E0;7.158663273E0;9.712017832E0
5.243669313E0;1.326387763E0;6.325480938E0;6.919242859E0;9.468206553E0
5.253776938E0;1.067813993E0;6.220136166E0;6.880935669E0;9.336894362E0
5.263766751E0;8.571242094E-1;6.311115742E0;7.048529625E0;9.499821771E0
5.273793157E0;7.805097699E-1;6.373364925E0;7.326257229E0;9.741818155E0
5.283713860E0;9.241618514E-1;6.382941723E0;7.642292023E0;1.000003238E1
5.293781712E0;1.015141487E0;6.325480938E0;7.608773232E0;9.946640208E0
5.303776638E0;1.086967587E0;6.335057735E0;7.383718014E0;9.789471219E0
5.313722101E0;1.005564690E0;6.426037312E0;7.110779285E0;9.636819907E0
5.323689332E0;8.283938169E-1;6.402095318E0;7.000645638E0;9.522714955E0
5.333656948E0;6.799532771E-1;6.387730122E0;7.062894821E0;9.547246505E0
5.343771256E0;5.985504389E-1;6.454767704E0;7.149086475E0;9.650478028E0
5.353805910E0;6.943184733E-1;6.488286495E0;7.110779285E0;9.651068430E0
5.363791237E0;7.517793179E-1;6.459556103E0;7.101202011E0;9.629024208E0
5.373723400E0;6.703764796E-1;6.421248913E0;7.038952827E0;9.551371584E0
5.383823482E0;5.267243981E-1;6.358999729E0;7.010222435E0;9.479321428E0
5.393779523E0;4.596867263E-1;6.344634533E0;6.943184853E0;9.416661571E0
5.403724543E0;4.357447028E-1;6.406883717E0;6.880935669E0;9.411976843E0
5.413764053E0;4.596867263E-1;6.378153324E0;6.971915245E0;9.460430957E0
5.423791308E0;5.075707436E-1;6.426037312E0;7.077260017E0;9.572836202E0
5.433918436E0;6.943184733E-1;6.440402508E0;7.034164429E0;9.562443820E0
5.443769000E0;6.895300746E-1;6.459556103E0;6.976703644E0;9.532875248E0
5.453758282E0;7.948749661E-1;6.502651691E0;7.015010834E0;9.598264543E0
5.463727423E0;9.720458984E-1;6.502651691E0;6.967126846E0;9.579676860E0
5.473793993E0;9.193734527E-1;6.430825710E0;6.809109688E0;9.410884209E0
5.483717778E0;7.469909191E-1;6.335057735E0;6.694188118E0;9.246788983E0
5.493690171E0;6.607996821E-1;6.277596951E0;6.871358871E0;9.330619081E0
5.503723367E0;6.320692301E-1;6.282385349E0;7.077260017E0;9.484486625E0
5.513936965E0;6.799532771E-1;6.344634533E0;7.235277653E0;9.647070360E0
5.523906764E0;7.374141216E-1;6.373364925E0;7.254431248E0;9.684540918E0
5.533799664E0;7.900865674E-1;6.478709698E0;7.139509678E0;9.673185337E0
5.543732114E0;7.852981687E-1;6.454767704E0;7.082048416E0;9.614370967E0
5.553875339E0;7.613561153E-1;6.411672115E0;7.043741226E0;9.555286124E0
5.563836951E0;7.757213712E-1;6.459556103E0;7.010222435E0;9.564038231E0
5.573787257E0;8.475474119E-1;6.411672115E0;6.962338448E0;9.502738163E0
5.583716410E0;8.044517636E-1;6.354211330E0;6.904877663E0;9.418093215E0
5.593681987E0;7.613561153E-1;6.287173748E0;6.809109688E0;9.299042511E0
5.603798275E0;7.948749661E-1;6.282385349E0;6.737283707E0;9.246144258E0
5.613762419E0;7.422025204E-1;6.349422932E0;6.785167694E0;9.322260283E0
5.623737991E0;6.799532771E-1;6.378153324E0;6.900089264E0;9.420955797E0
5.633770777E0;6.703764796E-1;6.416460514E0;7.120356083E0;9.608321440E0
5.643769170E0;6.991068721E-1;6.435614109E0;7.240066051E0;9.712076802E0
5.653721867E0;7.278373241E-1;6.402095318E0;7.196970463E0;9.659863119E0
5.663676715E0;6.464344859E-1;6.354211330E0;7.211335659E0;9.633132469E0
5.673711139E0;6.560112834E-1;6.382941723E0;7.287950039E0;9.710124181E0
5.683727351E0;7.326257229E-1;6.402095318E0;7.225700855E0;9.681648504E0
5.693738457E0;8.140285611E-1;6.445190907E0;6.971915245E0;9.529466433E0
5.703811510E0;7.948749661E-1;6.406883717E0;6.837840080E0;9.404043924E0
5.714030537E0;7.613561153E-1;6.378153324E0;6.813898087E0;9.364278408E0
5.723901550E0;7.278373241E-1;6.368576527E0;6.981492043E0;9.477855521E0
5.733874057E0;7.086837292E-1;6.335057735E0;7.134721279E0;9.567624411E0
5.743754810E0;7.134721279E-1;6.306327343E0;7.216124058E0;9.609955955E0
5.753865187E0;7.230489254E-1;6.296750546E0;7.307103634E0;9.672932890E0
5.763845875E0;7.757213712E-1;6.330269337E0;7.383718014E0;9.756707704E0
5.773771219E0;8.714894056E-1;6.382941723E0;7.307103634E0;9.741416855E0
5.783695891E0;9.576807022E-1;6.411672115E0;7.120356083E0;9.629442476E0
5.793715227E0;1.000776291E0;6.363788128E0;6.947973251E0;9.474897615E0
5.803744395E0;1.010353088E0;6.330269337E0;6.928819656E0;9.439367832E0
5.813706979E0;9.481038451E-1;6.325480938E0;6.880935669E0;9.394566817E0
5.823718271E0;8.954314590E-1;6.325480938E0;6.861782074E0;9.375369850E0
5.833730417E0;7.757213712E-1;6.272808552E0;6.943184853E0;9.389232486E0
5.843699990E0;6.895300746E-1;6.315904140E0;7.115567684E0;9.539255752E0
5.853676777E0;7.661445141E-1;6.373364925E0;7.244854450E0;9.679600916E0
5.863655670E0;8.236053586E-1;6.406883717E0;7.230489254E0;9.695692837E0
5.873665617E0;9.145850539E-1;6.440402508E0;7.153874874E0;9.669186936E0
5.883834590E0;9.050082564E-1;6.430825710E0;7.110779285E0;9.630043681E0
5.893793077E0;8.714894056E-1;6.402095318E0;7.010222435E0;9.533600413E0
5.903809320E0;7.900865674E-1;6.315904140E0;6.995857239E0;9.458165805E0
5.913826442E0;6.943184733E-1;6.239289761E0;7.019799232E0;9.417451679E0
5.923759503E0;6.512228847E-1;6.258443356E0;7.091625214E0;9.480683132E0
5.933753033E0;6.991068721E-1;6.363788128E0;7.173028469E0;9.614514401E0
5.943721298E0;6.943184733E-1;6.406883717E0;7.058106422E0;9.557567859E0
5.953824931E0;6.751648784E-1;6.440402508E0;6.842628479E0;9.421050715E0
5.963856747E0;5.985504389E-1;6.416460514E0;6.684611320E0;9.285109405E0
5.973797155E0;6.847416759E-1;6.493074894E0;6.665457726E0;9.330445832E0
5.983710359E0;7.805097699E-1;6.440402508E0;6.847416878E0;9.432661229E0
5.993733961E0;8.188169599E-1;6.440402508E0;7.158663273E0;9.664145360E0
6.003786762E0;7.326257229E-1;6.382941723E0;7.254431248E0;9.690482868E0
6.013793163E0;7.230489254E-1;6.373364925E0;7.283161640E0;9.704999933E0
6.023724863E0;6.416460276E-1;6.416460514E0;7.268796444E0;9.716896464E0
6.033804213E0;6.943184733E-1;6.454767704E0;7.187393665E0;9.685284299E0
6.043760388E0;7.374141216E-1;6.397306919E0;7.091625214E0;9.579168209E0
6.053733976E0;7.517793179E-1;6.421248913E0;6.938396454E0;9.483615086E0
6.063853770E0;6.799532771E-1;6.373364925E0;6.804321289E0;9.347775411E0
6.073825167E0;6.368576288E-1;6.354211330E0;6.804321289E0;9.331686743E0
6.083737865E0;6.464344859E-1;6.354211330E0;6.871358871E0;9.381335295E0
6.093745714E0;7.086837292E-1;6.363788128E0;7.029376030E0;9.508530872E0
6.103712639E0;7.182605267E-1;6.306327343E0;7.129932880E0;9.545763753E0
6.113843101E0;7.709329724E-1;6.339846134E0;7.173028469E0;9.604182634E0
6.123823332E0;7.517793179E-1;6.430825710E0;7.077260017E0;9.592095747E0
6.133802948E0;8.140285611E-1;6.449979305E0;6.957550049E0;9.522204483E0
6.143725756E0;8.858546019E-1;6.473921299E0;7.005434036E0;9.579796522E0
6.153767660E0;9.864110947E-1;6.445190907E0;6.976703644E0;9.549234860E0
6.163843112E0;9.481038451E-1;6.378153324E0;6.933608055E0;9.468614544E0
6.173802338E0;8.188169599E-1;6.354211330E0;6.856993675E0;9.384286073E0
6.183744451E0;7.661445141E-1;6.325480938E0;6.943184853E0;9.423720200E0
6.193797007E0;7.134721279E-1;6.363788128E0;7.086836815E0;9.551444805E0
6.203786285E0;6.847416759E-1;6.397306919E0;7.201758862E0;9.657108143E0
6.213839924E0;6.320692301E-1;6.358999729E0;7.144298077E0;9.585269119E0
6.223756244E0;5.985504389E-1;6.373364925E0;7.115567684E0;9.571277165E0
6.233771904E0;7.134721279E-1;6.382941723E0;7.067683220E0;9.550033173E0
6.243777234E0;7.805097699E-1;6.406883717E0;7.038952827E0;9.550089600E0
6.254007899E0;8.140285611E-1;6.502651691E0;7.024587631E0;9.606870089E0
6.263848731E0;8.427590132E-1;6.469132900E0;6.943184853E0;9.527210459E0
6.273801147E0;7.469909191E-1;6.440402508E0;6.947973251E0;9.503215887E0
6.283714855E0;7.278373241E-1;6.454767704E0;6.924031258E0;9.493997163E0
6.293727209E0;6.607996821E-1;6.488286495E0;6.904877663E0;9.497992072E0
6.303731386E0;6.512228847E-1;6.464344501E0;6.947973251E0;9.512422056E0
6.313744475E0;6.655880809E-1;6.349422932E0;7.034164429E0;9.499349887E0
6.323711019E0;6.320692301E-1;6.325480938E0;7.192182064E0;9.598890741E0
6.333815791E0;6.368576288E-1;6.397306919E0;7.259219646E0;9.696772315E0
6.343786177E0;8.044517636E-1;6.392518520E0;7.192182064E0;9.656030163E0
6.353798370E0;9.193734527E-1;6.378153324E0;7.000645638E0;9.514994835E0
6.363774967E0;8.667010069E-1;6.339846134E0;6.876147270E0;9.392881396E0
6.373784265E0;8.092401624E-1;6.349422932E0;6.775590897E0;9.320872985E0
6.383991914E0;8.475474119E-1;6.411672115E0;6.837840080E0;9.411903787E0
6.393824239E0;8.714894056E-1;6.488286495E0;6.962338448E0;9.556752172E0
6.403858901E0;8.092401624E-1;6.464344501E0;7.015010834E0;9.573557148E0
6.413939732E0;8.236053586E-1;6.426037312E0;7.048529625E0;9.573612233E0
6.423897148E0;6.655880809E-1;6.435614109E0;6.928819656E0;9.479909192E0
6.433906356E0;6.464344859E-1;6.421248913E0;6.904877663E0;9.451330630E0
6.443770960E0;6.560112834E-1;6.473921299E0;6.938396454E0;9.512273815E0
6.453818262E0;6.751648784E-1;6.449979305E0;6.919242859E0;9.483353963E0
6.463797413E0;6.943184733E-1;6.449979305E0;7.000645638E0;9.544283657E0
6.473813488E0;6.177040339E-1;6.402095318E0;7.038952827E0;9.534948329E0
6.483779526E0;6.320692301E-1;6.358999729E0;7.149086475E0;9.588838642E0
6.493730045E0;6.943184733E-1;6.421248913E0;7.240066051E0;9.702219961E0
6.503794304E0;7.757213712E-1;6.440402508E0;7.201758862E0;9.692567194E0
6.514098934E0;7.805097699E-1;6.478709698E0;7.062894821E0;9.615994910E0
6.523895249E0;7.900865674E-1;6.416460514E0;6.866570473E0;9.431065283E0
6.533783906E0;7.852981687E-1;6.363788128E0;6.789956093E0;9.339057570E0
6.543783735E0;7.182605267E-1;6.426037312E0;6.780379295E0;9.369279433E0
6.553742649E0;6.895300746E-1;6.421248913E0;6.938396454E0;9.478883620E0
6.563726606E0;7.374141216E-1;6.426037312E0;7.038952827E0;9.559528860E0
6.575672085E0;7.374141216E-1;6.469132900E0;7.067683220E0;9.609662125E0
6.584694324E0;8.714894056E-1;6.426037312E0;6.684611320E0;9.313295755E0
6.594225444E0;9.720458984E-1;6.459556103E0;6.785167694E0;9.418558218E0
6.604220504E0;9.385270476E-1;6.507440090E0;7.034164429E0;9.628451524E0
6.613947534E0;8.667010069E-1;6.454767704E0;7.110779285E0;9.642529689E0
6.625458549E0;8.667010069E-1;6.406883717E0;6.967126846E0;9.504745451E0
6.634567556E0;8.140285611E-1;6.373364925E0;6.866570473E0;9.403840334E0
6.644108560E0;7.134721279E-1;6.387730122E0;6.919242859E0;9.443943050E0
6.653878562E0;6.799532771E-1;6.473921299E0;6.962338448E0;9.531429594E0
6.663762563E0;7.086837292E-1;6.512228489E0;6.962338448E0;9.559576831E0
6.673757563E0;6.799532771E-1;6.488286495E0;6.904877663E0;9.499343853E0
6.683776063E0;7.182605267E-1;6.449979305E0;6.842628479E0;9.430784470E0
6.693877813E0;7.469909191E-1;6.464344501E0;6.761225700E0;9.384024629E0
6.703789188E0;7.469909191E-1;6.411672115E0;6.698976517E0;9.302893159E0
6.713777376E0;7.326257229E-1;6.354211330E0;6.737283707E0;9.289980292E0
6.723819470E0;7.422025204E-1;6.344634533E0;6.995857239E0;9.473503599E0
6.733788517E0;8.092401624E-1;6.402095318E0;7.230489254E0;9.691319258E0
6.743811040E0;8.379706144E-1;6.330269337E0;7.316680431E0;9.711246942E0
6.753749302E0;7.900865674E-1;6.339846134E0;7.489062786E0;9.843980252E0
6.763709433E0;7.709329724E-1;6.378153324E0;7.752425194E0;1.006852888E1
6.773710998E0;7.996633649E-1;6.521805286E0;7.905653954E0;1.027972617E1
6.783818781E0;8.475474119E-1;6.507440090E0;7.359776020E0;9.860599181E0
6.793797672E0;8.379706144E-1;6.354211330E0;6.880935669E0;9.403481912E0
6.803786618E0;5.506663918E-1;6.244078159E0;6.181828976E0;8.803792082E0
6.813914591E0;8.667010069E-1;6.344634533E0;5.817910194E0;8.651799641E0
6.823879577E0;9.672574997E-1;6.397306919E0;5.975927353E0;8.807543960E0
