"Time (s)";"Acceleration x (m/s^2)";"Acceleration y (m/s^2)";"Acceleration z (m/s^2)";"Absolute acceleration (m/s^2)"
1.258446900E-2;4.596867263E-1;5.406107426E0;8.446743965E0;1.003916296E1
3.422396900E-2;6.081272364E-1;5.449203014E0;8.714894295E0;1.029626218E1
5.011721900E-2;8.283938169E-1;5.420472622E0;8.432378769E0;1.005846765E1
6.294784400E-2;1.134851575E0;5.391742229E0;7.728483200E0;9.491481704E0
7.433915600E-2;1.297657371E0;5.463568211E0;6.842628479E0;8.851895658E0
8.506931200E-2;1.312022567E0;5.597643375E0;6.210559368E0;8.463218196E0
9.550739000E-2;1.024718285E0;5.736507416E0;6.239289761E0;8.537347458E0
1.056439290E-1;8.236053586E-1;5.846640587E0;6.866570473E0;9.056010269E0
1.157866990E-1;8.858546019E-1;5.770026207E0;7.522581577E0;9.521931232E0
1.257950840E-1;7.757213712E-1;5.554547787E0;7.790732384E0;9.599492478E0
1.357632760E-1;6.560112834E-1;5.482721806E0;7.848193169E0;9.596078637E0
1.457773720E-1;5.698199868E-1;5.540182590E0;7.489062786E0;9.332972697E0
1.557969200E-1;8.427590132E-1;5.425261021E0;7.522581577E0;9.313051781E0
1.658166940E-1;1.867477298E0;3.749319792E0;7.886500359E0;8.929824089E0
1.758185810E-1;7.517793179E-1;5.578489780E0;8.327033043E0;1.005107953E1
1.857725250E-1;1.029506683E0;6.057330132E0;8.686163902E0;1.063957592E1
1.958604970E-1;8.906430602E-1;5.621585369E0;7.996633530E0;9.815376454E0
2.058409830E-1;7.038952708E-1;5.363011837E0;7.953537941E0;9.618530568E0
2.162357260E-1;6.464344859E-1;5.396530628E0;8.106766701E0;9.760127392E0
2.260420970E-1;6.847416759E-1;5.511452198E0;8.250418663E0;9.945571105E0
2.358942830E-1;8.188169599E-1;5.439626217E0;8.197746277E0;9.872337039E0
2.458973760E-1;9.528923035E-1;5.382165432E0;8.121131897E0;9.789202816E0
2.558584220E-1;9.289502501E-1;5.291185856E0;8.025363922E0;9.657435602E0
2.658289450E-1;9.720458984E-1;5.262455463E0;8.030152321E0;9.649956323E0
2.759327070E-1;1.110909581E0;5.291185856E0;8.106766701E0;9.744251341E0
2.858430880E-1;1.278503656E0;5.305551052E0;8.097189903E0;9.764626357E0
2.959277780E-1;1.288080573E0;5.343858242E0;7.996633530E0;9.703716828E0
3.058726230E-1;1.249773264E0;5.463568211E0;7.934384346E0;9.714266094E0
3.158120460E-1;1.177947283E0;5.458779812E0;7.996633530E0;9.753562664E0
3.257987570E-1;1.082179189E0;5.439626217E0;7.738059998E0;9.520410585E0
3.358121130E-1;1.096544385E0;5.477933407E0;7.187393665E0;9.103229740E0
3.458172910E-1;1.063025594E0;5.477933407E0;7.235277653E0;9.137123209E0
3.557953800E-1;8.906430602E-1;5.434837818E0;7.709329605E0;9.474411334E0
3.658194240E-1;8.236053586E-1;5.410895824E0;7.819462776E0;9.544638155E0
3.758789460E-1;8.619126081E-1;5.377377033E0;7.805097580E0;9.517280354E0
3.858832070E-1;8.810662031E-1;5.492298603E0;7.953537941E0;9.705688403E0
3.959393380E-1;8.475474119E-1;5.631162167E0;8.121131897E0;9.918725082E0
4.058504030E-1;8.523358107E-1;5.717353821E0;8.030152321E0;9.894339662E0
4.161244360E-1;8.667010069E-1;5.736507416E0;7.939172745E0;9.833064214E0
4.260499520E-1;9.145850539E-1;5.755661011E0;7.843404770E0;9.771545317E0
4.358912100E-1;1.010353088E0;5.817910194E0;7.738059998E0;9.733779580E0
4.460148390E-1;1.106121182E0;5.870582581E0;7.680599213E0;9.730305657E0
4.558671540E-1;1.221042871E0;5.846640587E0;7.546523571E0;9.624145149E0
4.658853110E-1;1.168370485E0;5.793968201E0;7.196970463E0;9.312977018E0
4.759003900E-1;1.192312479E0;5.650316238E0;6.722918510E0;8.862579531E0
4.858639290E-1;1.197100878E0;5.573701382E0;6.761225700E0;8.843832347E0
4.958186990E-1;1.010353088E0;5.583278179E0;7.058106422E0;9.055974539E0
5.057640840E-1;9.576807022E-1;5.750872612E0;7.283161640E0;9.329208520E0
5.158807760E-1;1.125274777E0;5.837063789E0;7.340622425E0;9.445755374E0
5.258276220E-1;1.197100878E0;5.870582581E0;7.402871609E0;9.523617926E0
5.358295450E-1;1.015141487E0;6.430825710E0;7.249642849E0;9.743887981E0
5.458040070E-1;8.954314590E-1;6.426037312E0;7.489062786E0;9.908673697E0
5.557747380E-1;8.379706144E-1;6.306327343E0;7.192182064E0;9.602054059E0
5.658211030E-1;9.145850539E-1;6.186617374E0;7.311892033E0;9.621562527E0
5.757917860E-1;8.188169599E-1;6.263231754E0;7.350199223E0;9.691437552E0
5.857836270E-1;7.900865674E-1;6.311115742E0;7.532158375E0;9.858388736E0
5.959810480E-1;6.033388376E-1;6.263231754E0;7.575253963E0;9.847667865E0
6.058857580E-1;7.805097699E-1;6.172252178E0;7.838616371E0;1.000748715E1
6.159011130E-1;9.911994934E-1;6.129156113E0;7.967903137E0;1.010131236E1
6.258112910E-1;2.446874142E0;5.932831764E0;8.288725853E0;1.048277931E1
6.357908800E-1;1.134851575E0;6.090848923E0;7.560888767E0;9.775140288E0
6.458736740E-1;7.661445141E-1;6.090848923E0;6.727706909E0;9.107549521E0
6.558170710E-1;1.005564690E0;6.751648903E0;6.387730122E0;9.348744266E0
6.660532700E-1;5.027823448E-1;7.058106422E0;6.694188118E0;9.740729486E0
6.783928690E-1;1.723825186E-1;7.029376030E0;6.727706909E0;9.731592026E0
6.958784690E-1;1.340752989E-1;6.909666061E0;6.655880928E0;9.594905533E0
7.060614690E-1;1.675941199E-1;6.622362137E0;6.469132900E0;9.259235851E0
7.157694690E-1;1.292868853E-1;6.478709698E0;6.339846134E0;9.065541542E0
7.257814690E-1;-5.746084079E-2;6.411672115E0;6.086060524E0;8.840417058E0
7.357514690E-1;-2.250549644E-1;6.507440090E0;6.244078159E0;9.021415539E0
7.457784690E-1;-4.165911078E-1;6.713341713E0;6.473921299E0;9.335639351E0
7.564994690E-1;-5.075707436E-1;6.890512466E0;6.617573261E0;9.567082417E0
7.657664690E-1;-3.878606856E-1;6.981492043E0;6.651092529E0;9.650321180E0
7.758554690E-1;-3.303998411E-1;7.402871609E0;6.440402508E0;9.817864155E0
7.859504690E-1;-3.926490843E-1;7.297526836E0;6.900089264E0;1.005083594E1
7.957574690E-1;-1.436520964E-1;7.082048416E0;6.708553314E0;9.756061360E0
8.057404690E-1;2.298433632E-1;6.866570473E0;6.880935669E0;9.723676964E0
8.159194690E-1;5.075707436E-1;6.804321289E0;7.019799232E0;9.789484028E0
8.259114690E-1;7.278373241E-1;6.924031258E0;7.010222435E0;9.880039201E0
8.357654690E-1;1.015141487E0;6.952761650E0;7.048529625E0;9.952546241E0
8.457664690E-1;1.335964561E0;6.833051682E0;7.589619160E0;1.029940365E1
8.557464690E-1;1.431732655E0;6.861782074E0;8.130708694E0;1.073509830E1
8.658004690E-1;1.422155857E0;6.876147270E0;8.379706383E0;1.093267614E1
8.757374690E-1;1.307234168E0;6.722918510E0;8.106766701E0;1.061254733E1
8.857244690E-1;1.101332784E0;6.445190907E0;7.316680431E0;9.812605783E0
8.959144690E-1;5.746083856E-1;6.612784863E0;5.875370979E0;8.864484338E0
9.059634690E-1;1.436521020E-2;7.369352818E0;5.564124584E0;9.234015903E0
9.159144690E-1;-5.889736414E-1;7.115567684E0;5.008669853E0;8.721523211E0
9.257384690E-1;-4.022258818E-1;7.436390400E0;4.309563160E0;8.604302556E0
9.357044690E-1;-1.091755986E0;8.504204750E0;3.222595453E0;9.159615222E0
9.457764690E-1;-1.541865945E0;8.336610794E0;3.208230257E0;9.064721259E0
9.560124690E-1;-1.714248419E0;8.188169479E0;3.658340216E0;9.130619924E0
9.657234690E-1;-1.671152830E0;7.958326340E0;3.993528366E0;9.059579390E0
9.758324690E-1;-1.637633920E0;8.441955566E0;3.825934410E0;9.412025964E0
9.885094690E-1;-1.474828243E0;8.643068314E0;4.764461517E0;9.978869764E0
1.005745469E0;-1.388636947E0;8.456320763E0;5.295974255E0;1.007397720E1
1.015869469E0;-1.120486379E0;8.403648376E0;5.219359875E0;9.955828105E0
1.025836469E0;-1.134851575E0;8.279149055E0;4.836287498E0;9.655147536E0
1.035738469E0;-1.149216771E0;8.178592682E0;4.745307922E0;9.525125969E0
1.045777469E0;-1.230619669E0;8.192957878E0;4.778826714E0;9.564317452E0
1.055869469E0;-1.158793569E0;8.188169479E0;4.941632271E0;9.633724693E0
1.065747469E0;-1.130063176E0;8.101978302E0;4.850652695E0;9.510411492E0
1.075756469E0;-1.197100878E0;8.154650688E0;4.836287498E0;9.556205059E0
1.085758469E0;-1.039083481E0;8.092401505E0;5.037400246E0;9.588642126E0
1.095866469E0;-8.427590132E-1;7.762001991E0;5.118803024E0;9.336008894E0
1.105720469E0;-6.081272364E-1;7.632715225E0;4.730942726E0;9.000554401E0
1.115992469E0;-6.607996821E-1;8.743624687E0;4.065354347E0;9.665129842E0
1.125770469E0;-5.889736414E-1;9.174580574E0;4.074931145E0;1.005608684E1
1.135695469E0;-6.943184733E-1;9.241618156E0;4.180276394E0;1.016682325E1
1.145728469E0;-5.506663918E-1;8.748413086E0;4.582501888E0;9.891273353E0
1.155701469E0;-3.734954596E-1;8.197746277E0;5.243301868E0;9.738313887E0
1.165694469E0;-4.213795066E-1;8.303091049E0;5.497087002E0;9.966787204E0
1.175765469E0;-4.932055473E-1;7.469909191E0;5.870582581E0;9.513492254E0
1.186100469E0;-1.120486379E0;8.020575523E0;6.038176537E0;1.010171754E1
1.195733469E0;-9.145850539E-1;9.624691010E0;5.564124584E0;1.115484761E1
1.205711469E0;-7.805097699E-1;8.882488251E0;5.176264286E0;1.031026212E1
1.215831469E0;-9.624691010E-1;8.695740700E0;4.707000732E0;9.934692194E0
1.226114469E0;-7.469909191E-1;7.503427982E0;5.099649429E0;9.103068231E0
1.235756469E0;-1.134851575E0;8.355764389E0;5.233725071E0;9.924644313E0
1.245768469E0;-1.786074519E0;1.059194851E1;4.802768707E0;1.176630880E1
1.255874469E0;-1.829170108E0;9.567230225E0;5.109226227E0;1.099917952E1
1.266352469E0;-1.632845521E0;8.599972725E0;4.984727859E0;1.007339204E1
1.275905469E0;-1.091755986E0;7.642292023E0;4.697423935E0;9.036722311E0
1.285808469E0;-9.672574997E-1;7.043741226E0;4.180276394E0;8.247701999E0
1.295776469E0;-1.345541358E0;7.149086475E0;3.600879431E0;8.117034659E0
1.305839469E0;-1.958456993E0;9.150638580E0;2.418143749E0;9.665255269E0
1.316066469E0;-1.130063176E0;8.791508675E0;2.145204782E0;9.119735255E0
1.325909469E0;-3.806780815E0;9.030928612E0;-3.289633036E0;1.033784007E1
1.335884469E0;-3.600879431E0;1.019451046E1;-3.481169224E0;1.135838524E1
1.346198469E0;-2.456450939E0;1.092713642E1;-1.996764183E0;1.137644623E1
1.356043469E0;-7.230489254E-1;1.067335129E1;-1.862688899E0;1.085876777E1
1.366139469E0;6.033388376E-1;1.022802925E1;-1.608903527E0;1.037136301E1
1.375946469E0;1.374271750E0;9.763554573E0;-1.580173135E0;9.985618052E0
1.385960469E0;1.173158884E0;9.490615845E0;-1.565807939E0;9.690193258E0
1.396058469E0;5.889736414E-1;9.605537415E0;-1.958456993E0;9.820834627E0
1.405814469E0;-8.619125932E-2;9.639056206E0;-1.340752959E0;9.732237768E0
1.415991469E0;-6.895300746E-1;9.624691010E0;2.825157940E-1;9.653493871E0
1.426002469E0;-1.015141487E0;9.677363396E0;1.599326730E0;9.861020258E0
1.435849469E0;-1.043871999E0;9.586383820E0;2.173935175E0;9.885060325E0
1.446539469E0;-8.379706144E-1;9.567230225E0;2.327163935E0;9.881790369E0
1.456139469E0;-6.416460276E-1;9.562441826E0;1.948880196E0;9.780088819E0
1.465811469E0;-3.256114423E-1;9.447520256E0;1.101332784E0;9.517068651E0
1.476350469E0;-2.011129409E-1;9.332598686E0;4.165911078E-1;9.344056550E0
1.486058469E0;-1.053448766E-1;9.409213066E0;3.064578176E-1;9.414791791E0
1.495900469E0;-4.165911078E-1;9.466673851E0;2.011129409E-1;9.477969633E0
1.506075469E0;-7.182605267E-1;9.591172218E0;4.501099288E-1;9.628555533E0
1.515752469E0;-7.038952708E-1;9.749189377E0;9.050082564E-1;9.816374178E0
1.526215469E0;-7.422025204E-1;9.821015358E0;1.407790542E0;9.949124658E0
1.535985469E0;-8.762778044E-1;9.811438560E0;1.752555609E0;1.000518069E1
1.545779469E0;-1.470039845E0;9.950302124E0;2.647987127E0;1.040102713E1
1.555886469E0;-2.288856745E0;9.888052940E0;3.931279182E0;1.088427362E1
1.565803469E0;-1.733402014E0;9.792284966E0;2.944868088E0;1.037139217E1
1.575846469E0;-1.594538331E0;9.706093788E0;3.342305660E0;1.038854255E1
1.585828469E0;-1.704671621E0;9.476250648E0;2.585737944E0;9.969517160E0
1.596150469E0;-1.594538331E0;9.399636269E0;1.426944256E0;9.640118484E0
1.606026469E0;-1.177947283E0;9.437943459E0;9.145850539E-1;9.555040678E0
1.616172469E0;-7.086837292E-1;9.567230225E0;3.687070608E-1;9.600524553E0
1.625833469E0;-1.915361360E-2;9.624691010E0;-6.655880809E-1;9.647696688E0
1.636004469E0;2.873041928E-1;9.610325813E0;-1.431732655E0;9.720636004E0
1.646497469E0;6.272808313E-1;9.696516991E0;-1.508347034E0;9.833159908E0
1.655873469E0;1.168370485E0;9.725247383E0;-8.331822157E-1;9.830550283E0
1.666082469E0;1.254561663E0;9.959878922E0;1.915361360E-2;1.003859950E1
1.675777469E0;3.639186621E-1;9.854534149E0;9.385270476E-1;9.905812087E0
1.686364469E0;2.442085743E-1;9.476250648E0;-5.889736414E-1;9.497676249E0
1.695926469E0;-3.351882398E-1;9.351752281E0;-4.740519226E-1;9.369757046E0
1.705981469E0;-3.830722570E-1;9.490615845E0;1.436521020E-2;9.498354585E0
1.716194469E0;-5.889736414E-1;9.658209801E0;7.374141216E-1;9.704209710E0
1.726036469E0;-4.788403511E-1;9.777919769E0;8.379706144E-1;9.825436268E0
1.735803469E0;-4.788403511E-1;9.897629738E0;1.053448796E0;9.965044750E0
1.745766469E0;5.889736414E-1;1.012268448E1;1.130063176E0;1.020258172E1
1.756335469E0;9.145850539E-1;1.007958889E1;9.624691010E-1;1.016665750E1
1.765936469E0;8.140285611E-1;9.821015358E0;4.118026793E-1;9.863293902E0
1.775919469E0;4.022258818E-1;9.715670586E0;3.830722719E-2;9.724068492E0
1.786029469E0;3.016694188E-1;9.715670586E0;2.394201756E-1;9.723300951E0
1.795757469E0;4.357447028E-1;9.672574997E0;2.202665508E-1;9.684890184E0
1.805746469E0;4.357447028E-1;9.677363396E0;2.777273953E-1;9.691148964E0
1.815716469E0;-3.830722719E-2;9.696516991E0;2.250549644E-1;9.699204036E0
1.826029469E0;-1.484405100E-1;9.720458984E0;2.825157940E-1;9.725696511E0
1.835828469E0;-8.619125932E-2;9.744400978E0;2.154781520E-1;9.747164213E0
1.845767469E0;2.873042040E-2;9.696516991E0;-1.053448766E-1;9.697131779E0
1.855922469E0;3.016694188E-1;9.629479408E0;-3.974374831E-1;9.642397765E0
1.865775469E0;4.357447028E-1;9.519346237E0;-1.340752989E-1;9.530257206E0
1.875789469E0;3.351882398E-1;9.442731857E0;2.873042040E-2;9.448722746E0
1.885832469E0;2.729389966E-1;9.303867340E0;9.097966552E-2;9.308314588E0
1.895753469E0;3.782838583E-1;9.346963882E0;2.394201607E-2;9.354646210E0
1.905746469E0;4.884171486E-1;9.404424667E0;3.830722719E-2;9.417176970E0
1.915708469E0;4.836287498E-1;9.543288231E0;2.394201756E-1;9.558533833E0
1.925743469E0;6.368576288E-1;9.715670586E0;3.782838583E-1;9.743866853E0
1.935827469E0;8.475474119E-1;9.710882187E0;3.399766386E-1;9.753725113E0
1.945913469E0;9.433154464E-1;9.615114212E0;-5.267243832E-2;9.661420171E0
1.955774469E0;1.029506683E0;9.543288231E0;-2.011129409E-1;9.600764589E0
1.965741469E0;1.082179189E0;9.342175484E0;-3.782838583E-1;9.412250169E0
1.975969469E0;9.672574997E-1;9.188945770E0;-5.267243981E-1;9.254715016E0
1.985751469E0;8.092401624E-1;8.916007042E0;-4.596867263E-1;8.964449961E0
1.995780469E0;5.315127969E-1;8.595184326E0;-3.926490843E-1;8.620549446E0
2.005838469E0;2.059013397E-1;8.418013573E0;-2.059013397E-1;8.423048334E0
2.015856469E0;-2.250549644E-1;8.341399193E0;1.915361360E-2;8.344456668E0
2.025778469E0;-3.351882398E-1;8.341399193E0;4.309562966E-2;8.348242263E0
2.035885469E0;-2.920926213E-1;8.614337921E0;-1.628057212E-1;8.620826041E0
2.045790469E0;7.182604820E-2;8.805873871E0;-6.943184733E-1;8.833496010E0
2.055778469E0;3.591302633E-1;8.944737434E0;-8.236053586E-1;8.989751281E0
2.065964469E0;4.165911078E-1;8.963891029E0;-6.272808313E-1;8.995463956E0
2.075812469E0;5.027823448E-1;8.892065048E0;-8.619125932E-2;8.906685121E0
2.085765469E0;7.134721279E-1;8.887276649E0;2.537853718E-1;8.919480688E0
2.095794469E0;9.481038451E-1;8.815450668E0;5.602431893E-1;8.883971174E0
2.105780469E0;1.043871999E0;8.628703117E0;1.005564690E0;8.749591224E0
2.115755469E0;1.091755986E0;8.355764389E0;1.273715258E0;8.522504339E0
2.125928469E0;1.115697980E0;7.948749542E0;1.115697980E0;8.103837563E0
2.135824469E0;1.019929886E0;7.536946774E0;4.548983276E-1;7.619235928E0
2.145827469E0;1.005564690E0;7.163451672E0;-1.197100878E-1;7.234675577E0
2.155873469E0;1.221042871E0;6.914454460E0;-2.777273953E-1;7.026930958E0
2.165809469E0;1.149216771E0;6.689399719E0;-8.044517636E-1;6.834903835E0
2.175843469E0;1.168370485E0;6.320692539E0;-1.388636947E0;6.576059332E0
2.185951469E0;9.864110947E-1;6.153098583E0;-1.709460020E0;6.461879184E0
2.195822469E0;9.385270476E-1;6.263231754E0;-1.857900500E0;6.600052977E0
2.205776469E0;9.385270476E-1;6.636727333E0;-1.752555609E0;6.928090204E0
2.215791469E0;9.145850539E-1;7.278373241E0;-1.810016513E0;7.555616629E0
2.225775469E0;8.571242094E-1;7.900865555E0;-1.316810966E0;8.055577543E0
2.235732469E0;4.644751251E-1;8.255207062E0;-8.140285611E-1;8.308238277E0
2.245786469E0;3.016694188E-1;8.528146744E0;-5.410895944E-1;8.550618064E0
2.255751469E0;6.224924326E-1;8.801085472E0;-6.560112834E-1;8.847426356E0
2.265821469E0;4.932055473E-1;9.040505409E0;-4.405331016E-1;9.064659904E0
2.276512469E0;5.458779931E-1;9.169792175E0;3.830722719E-2;9.186105745E0
2.285740469E0;7.374141216E-1;9.409213066E0;3.830722719E-2;9.438142696E0
2.296058469E0;1.110909581E0;9.940725327E0;2.250549644E-1;1.000513817E1
2.305934469E0;1.388636947E0;1.070687008E1;4.070142806E-1;1.080421400E1
2.315780469E0;1.848323703E0;1.131978607E1;6.703764945E-2;1.146988890E1
2.325943469E0;2.389413357E0;1.178904915E1;-5.219359994E-1;1.204007447E1
2.335741469E0;2.279279947E0;1.202846909E1;-1.072602391E0;1.228941258E1
2.345749469E0;2.121262789E0;1.222000504E1;-1.187524080E0;1.245947400E1
2.355754469E0;2.284068346E0;1.224873543E1;-1.431732655E0;1.254186374E1
2.365818469E0;1.982398987E0;1.190397072E1;-2.355894566E0;1.229571730E1
2.375739469E0;1.398213744E0;1.200931549E1;-2.164358377E0;1.228263438E1
2.385735469E0;1.005564690E0;1.250730991E1;-1.695094824E0;1.266164713E1
2.395807469E0;4.501099288E-1;1.303882217E1;-1.201889277E0;1.310183271E1
2.405765469E0;6.320692301E-1;1.387200451E1;-9.097966552E-1;1.391616867E1
2.415734469E0;6.272808313E-1;1.444182491E1;-1.216254473E0;1.450651795E1
2.425751469E0;6.799532771E-1;1.516487312E1;-1.206677675E0;1.522799344E1
2.436082469E0;5.171475410E-1;1.596453667E1;-1.929726601E0;1.608905582E1
2.445800469E0;5.315127969E-1;1.630451393E1;-1.546654344E0;1.638633028E1
2.455809469E0;1.086967587E0;1.706108093E1;-1.508347034E0;1.716208297E1
2.466063469E0;1.613691926E0;1.795172501E1;-1.412579060E0;1.807937532E1
2.475935469E0;1.972822189E0;1.866998482E1;-2.030282974E0;1.888338978E1
2.485801469E0;1.939303398E0;1.956062698E1;-3.198653460E0;1.991507996E1
2.495881469E0;1.244984865E0;2.067153740E1;-2.595314741E0;2.087098714E1
2.505773469E0;1.426944256E0;2.178244781E1;-1.335964561E0;2.186997952E1
2.515754469E0;1.474828243E0;2.258211136E1;-2.916137695E0;2.281733400E1
2.525774469E0;1.134851575E0;2.290772247E1;-5.688623428E0;2.363074424E1
2.535744469E0;1.312022567E0;2.297476006E1;-5.956773758E0;2.377065747E1
2.545752469E0;1.077390790E0;2.358288765E1;-4.865017891E0;2.410356322E1
2.555716469E0;2.604891539E0;2.362598228E1;-4.343081951E0;2.416267493E1
2.565747469E0;2.695871115E0;2.273055077E1;-4.855441093E0;2.339916596E1
2.575910469E0;2.547430515E0;2.110728264E1;-4.295197964E0;2.168998636E1
2.585763469E0;2.092532396E0;1.931163025E1;-2.743755102E0;1.961749084E1
2.595726469E0;4.022258818E-1;1.834437370E1;-3.878606856E-1;1.835288174E1
2.605972469E0;-5.746083856E-1;1.856464005E1;1.063025594E0;1.860392588E1
2.615775469E0;2.456450939E0;1.966118431E1;2.815581083E0;2.001309113E1
2.625771469E0;5.511452198E0;1.824381638E1;2.815581083E0;1.926500553E1
2.635771469E0;7.929595947E0;1.391510010E1;1.604115129E0;1.609601466E1
2.645820469E0;8.475474358E0;8.279149055E0;8.762778044E-1;1.188048136E1
2.656307469E0;6.612784863E0;2.063801765E0;4.582501888E0;8.305872917E0
2.665776469E0;3.045424461E0;-3.418920040E0;9.581595421E0;1.061935004E1
2.675749469E0;-2.097320795E0;-9.006986618E0;1.049139214E1;1.398548789E1
2.685793469E0;-4.735731125E0;-1.277546024E1;7.776367188E0;1.568793869E1
2.695821469E0;-6.473921299E0;-1.079784966E1;6.071695328E0;1.397750687E1
2.705967469E0;3.873818398E0;-3.155557871E0;1.685518026E0;5.273043284E0
2.715780469E0;6.531382084E0;1.364694953E0;-2.446874142E0;7.106935859E0
2.725804469E0;3.658340216E0;3.289633036E0;-2.097320795E0;5.348260760E0
2.735779469E0;7.996633649E-1;3.404554844E0;-1.163581967E0;3.685699144E0
2.745766469E0;-2.116474390E0;2.968810081E0;1.302445769E0;3.871648502E0
2.755866469E0;-3.155557871E0;1.714248419E0;3.552995205E0;5.051729213E0
2.765775469E0;-2.767697096E0;9.768342972E-1;2.633621931E0;3.943389016E0
2.775828469E0;-1.771709204E0;-1.867477298E-1;1.053448766E-1;1.784636030E0
2.785814469E0;-9.289502501E-1;-1.201889277E0;-1.810016513E0;2.362974011E0
2.795828469E0;-7.661445439E-2;-1.537077546E0;-2.284068346E0;2.754168725E0
2.805762469E0;8.140286058E-2;-1.742978811E0;-1.441309452E0;2.263177964E0
2.815865469E0;-1.077390790E0;-1.814804912E0;-4.405331016E-1;2.156004915E0
2.825947469E0;-1.297657371E0;-1.637633920E0;-1.244984865E0;2.432230832E0
2.835779469E0;-6.464344859E-1;-1.278503656E0;-2.102109194E0;2.543877396E0
2.845819469E0;1.053448766E-1;-7.948749661E-1;-3.016694069E0;3.121436666E0
2.855850469E0;9.624691010E-1;-3.495534360E-1;-2.777273893E0;2.960031191E0
2.866329469E0;8.283938169E-1;2.537853718E-1;-2.456450939E0;2.604763818E0
2.875774469E0;6.560112834E-1;5.889736414E-1;-1.470039845E0;1.714134738E0
2.885795469E0;-3.926490843E-1;1.010353088E0;-4.405331016E-1;1.170066699E0
2.895776469E0;-1.431732655E0;1.168370485E0;3.543418646E-1;1.881623273E0
2.911130469E0;-1.948880196E0;1.594538331E0;6.895300746E-1;2.610773493E0
2.926394469E0;-1.412579060E0;2.025494576E0;2.059013397E-1;2.477983704E0
2.936515469E0;-9.145850539E-1;1.776497602E0;5.506663918E-1;2.072593310E0
2.945778469E0;-4.261679053E-1;1.441309452E0;5.075707436E-1;1.586385855E0
2.956234469E0;-4.548983276E-1;9.385270476E-1;5.363011956E-1;1.172767871E0
2.965783469E0;-3.256114423E-1;5.650315881E-1;6.464344859E-1;9.182380146E-1
2.977373469E0;-1.963245422E-1;4.596867263E-1;3.830722719E-2;5.013209111E-1
2.985781469E0;-2.585737705E-1;7.661445141E-1;-3.256114423E-1;8.716998466E-1
2.996604469E0;-7.661445439E-2;1.431732655E0;-4.022258818E-1;1.489131904E0
3.005789469E0;2.059013397E-1;2.537853718E0;-1.254561663E0;2.838489355E0
3.015738469E0;8.954314590E-1;4.347870350E0;-4.596867263E-1;4.462856256E0
3.025772469E0;2.188300371E0;5.999869347E0;-3.974374831E-1;6.398831709E0
3.035731469E0;2.427720547E0;7.838616371E0;-6.837840080E0;1.068146950E1
3.045936469E0;2.456450939E0;1.081221485E1;-3.936067581E0;1.176566059E1
3.055761469E0;-1.240196466E0;1.577778912E1;4.884171486E-1;1.583399090E1
3.065752469E0;-3.825934410E0;2.173935127E1;1.541865945E0;2.212723477E1
3.076212469E0;8.810662031E-1;2.922362518E1;7.038952708E-1;2.924537596E1
3.085794469E0;6.876147270E0;3.292985153E1;-6.354211330E0;3.423496056E1
3.095790469E0;4.453215122E0;2.987005997E1;-4.788403213E-2;3.020023014E1
3.106751469E0;-7.163451672E0;3.539587784E1;9.394847870E0;3.731549778E1
3.115765469E0;-9.782708168E0;3.318363571E1;2.104503250E1;4.049380757E1
3.127613469E0;1.149216771E0;2.429157066E1;-1.915361285E-1;2.431949404E1
3.135791469E0;9.524134636E0;1.904347992E1;-3.846524429E1;4.396519404E1
3.145774469E0;2.959233284E0;1.549048519E1;-2.215594292E1;2.719555110E1
3.155795469E0;3.754108191E0;1.066377449E1;-1.254561663E0;1.137467976E1
3.166060469E0;-8.571242094E-1;9.682151794E0;2.102109194E0;9.944726660E0
3.176591469E0;-4.510675907E0;8.753201485E0;2.729389966E-1;9.850849155E0
3.185749469E0;-4.156333923E0;9.184157372E0;-1.331176162E0;1.016837688E1
3.195760469E0;-1.058237195E0;1.113782597E1;-1.632845521E0;1.130651218E1
3.205786469E0;6.751648784E-1;1.253125191E1;-1.920149803E0;1.269547546E1
3.215787469E0;1.144428372E0;1.407311726E1;-2.207453966E0;1.429108808E1
3.225763469E0;1.379060149E0;1.491587639E1;-1.618480325E0;1.506667362E1
3.235770469E0;1.441309452E0;1.463814926E1;-9.145850539E-1;1.473734211E1
3.246163469E0;1.355118155E0;1.364694977E1;-8.236053586E-1;1.373877393E1
3.255753469E0;1.024718285E0;1.283292103E1;-1.570596337E0;1.296922058E1
3.265783469E0;8.140285611E-1;1.211466026E1;-1.637633920E0;1.225191743E1
3.275810469E0;6.847416759E-1;1.134851646E1;-1.532289028E0;1.147194869E1
3.285754469E0;6.751648784E-1;1.081221485E1;-1.182735682E0;1.089764659E1
3.295803469E0;9.576807022E-1;1.031422138E1;-1.254561663E0;1.043428196E1
3.306107469E0;9.528923035E-1;9.806650162E0;-1.383848548E0;9.949544107E0
3.315749469E0;7.038952708E-1;9.366117477E0;-1.292868972E0;9.481093573E0
3.325823469E0;7.565677166E-1;9.131484985E0;-1.024718285E0;9.219894810E0
3.335776469E0;6.943184733E-1;9.069235802E0;-5.985504389E-1;9.115447263E0
3.345787469E0;7.278373241E-1;9.035717010E0;-5.698199868E-1;9.082875309E0
3.355770469E0;8.044517636E-1;8.906430244E0;-6.560112834E-1;8.966715850E0
3.365749469E0;8.331822157E-1;8.772355080E0;-6.033388376E-1;8.832464209E0
3.375785469E0;4.836287498E-1;8.556877136E0;-5.075707436E-1;8.585550137E0
3.386422469E0;7.661445439E-2;8.446743965E0;-3.303998411E-1;8.453550582E0
3.395775469E0;-5.746084079E-2;8.303091049E0;-3.639186621E-1;8.311261006E0
3.405793469E0;-2.154781520E-1;8.125920296E0;-1.484405100E-1;8.130131984E0
3.415793469E0;-6.224924326E-2;8.006210327E0;-1.723825186E-1;8.008307843E0
3.426610469E0;-9.576806426E-2;7.852981567E0;-3.016694188E-1;7.859357191E0
3.435703469E0;1.436521020E-2;7.934384346E0;-4.501099288E-1;7.947154224E0
3.445758469E0;3.543418646E-1;8.140285492E0;-6.895300746E-1;8.177117938E0
3.455786469E0;7.613561153E-1;8.202534676E0;-9.528923035E-1;8.292722230E0
3.465904469E0;7.134721279E-1;8.403648376E0;-1.230619669E0;8.523190323E0
3.475734469E0;5.458779931E-1;8.623914719E0;-1.082179189E0;8.708673817E0
3.485732469E0;4.501099288E-1;8.959102631E0;-7.852981687E-1;9.004710551E0
3.495801469E0;6.033388376E-1;9.394847870E0;-5.219359994E-1;9.428658517E0
3.505789469E0;6.081272364E-1;9.591172218E0;-4.932055473E-1;9.623079287E0
3.515817469E0;4.884171486E-1;9.763554573E0;-4.596867263E-1;9.786565337E0
3.525784469E0;4.118026793E-1;9.998186111E0;-1.963245422E-1;1.000858883E1
3.535809469E0;4.213795066E-1;1.014662647E1;-1.101332754E-1;1.015596961E1
3.545799469E0;5.123591423E-1;1.015620327E1;-4.309562966E-2;1.016921010E1
3.555755469E0;1.580173075E-1;1.001733971E1;4.788403399E-3;1.001858709E1
3.565737469E0;-1.532289088E-1;9.950302124E0;1.340752989E-1;9.952385023E0
3.575765469E0;3.112462163E-1;9.959878922E0;-4.788403213E-2;9.964856006E0
3.585835469E0;6.368576288E-1;9.859322548E0;-6.177040339E-1;9.899160925E0
3.595749469E0;8.427590132E-1;9.634267807E0;-1.120486379E0;9.735751058E0
3.605768469E0;8.619126081E-1;9.279925346E0;-1.244984865E0;9.402653620E0
3.615796469E0;6.081272364E-1;9.141061783E0;-9.241618514E-1;9.207763267E0
3.625795469E0;5.889736414E-1;9.030928612E0;-7.182605267E-1;9.078571458E0
3.635740469E0;2.968810201E-1;8.973467827E0;-6.847416759E-1;9.004450807E0
3.645735469E0;6.224924326E-2;9.050082207E0;-7.374141216E-1;9.080288680E0
3.655739469E0;-1.580173075E-1;9.126696587E0;-6.943184733E-1;9.154432707E0
3.665835469E0;-4.309562966E-2;9.246406555E0;-6.464344859E-1;9.269075950E0
3.675770469E0;-1.436521020E-2;9.241618156E0;-8.762778044E-1;9.283080055E0
3.685726469E0;1.005564705E-1;9.270348549E0;-9.145850539E-1;9.315897146E0
3.695773469E0;-2.394201607E-2;9.351752281E0;-7.469909191E-1;9.381569132E0
3.705923469E0;1.915361360E-2;9.394847870E0;-8.140285611E-1;9.430067649E0
3.715744469E0;6.224924326E-2;9.414001465E0;-1.115697980E0;9.480088635E0
3.725775469E0;4.309562966E-2;9.423578262E0;-1.058237195E0;9.482908333E0
3.735728469E0;-1.436520964E-1;9.595960617E0;-6.320692301E-1;9.617827593E0
3.745759469E0;-2.729389966E-1;9.452308655E0;-2.106897533E-1;9.458595285E0
3.756079469E0;-2.777273953E-1;9.390059471E0;-1.436521020E-2;9.394176693E0
3.765753469E0;-3.782838583E-1;9.461885452E0;-9.097966552E-2;9.469881324E0
3.775781469E0;-1.771709323E-1;9.538499832E0;-1.771709323E-1;9.541790090E0
3.785756469E0;1.244984865E-1;9.567230225E0;-3.687070608E-1;9.575141719E0
3.795741469E0;2.394201756E-1;9.557653427E0;-6.655880809E-1;9.583791971E0
3.805922469E0;3.303998411E-1;9.557653427E0;-8.810662031E-1;9.603862803E0
3.815732469E0;4.596867263E-1;9.662998199E0;-9.193734527E-1;9.717514787E0
3.825768469E0;4.118026793E-1;9.758766174E0;-1.015141487E0;9.820061656E0
3.835820469E0;3.064578176E-1;9.854534149E0;-9.528923035E-1;9.905239191E0
3.845793469E0;-3.351882473E-2;9.859322548E0;-6.943184733E-1;9.883796981E0
3.855850469E0;-7.613561153E-1;9.969455719E0;-2.442085743E-1;1.000146731E1
3.865914469E0;-9.433154464E-1;1.000776291E1;1.628057212E-1;1.005344061E1
3.875748469E0;-5.746083856E-1;9.959878922E0;1.053448766E-1;9.976996566E0
3.885829469E0;-4.788403511E-1;9.897629738E0;-2.154781520E-1;9.911548484E0
3.895723469E0;-2.250549644E-1;9.763554573E0;-2.537853718E-1;9.769444951E0
3.905773469E0;1.101332754E-1;9.720458984E0;4.309562966E-2;9.721178398E0
3.915931469E0;3.208230138E-1;9.653421402E0;1.340752989E-1;9.659681587E0
3.925753469E0;2.394201756E-1;9.524134636E0;-8.140286058E-2;9.527491223E0
3.935773469E0;1.244984865E-1;9.538499832E0;-3.064578176E-1;9.544233616E0
3.945772469E0;3.830722719E-2;9.552865028E0;-4.596867263E-1;9.563995482E0
3.955793469E0;6.224924326E-2;9.576807022E0;-7.709329724E-1;9.607988622E0
3.965772469E0;-2.873042040E-2;9.610325813E0;-1.029506683E0;9.665354193E0
3.975800469E0;-2.585737705E-1;9.629479408E0;-7.469909191E-1;9.661869876E0
3.985735469E0;-3.303998411E-1;9.643844604E0;-4.165911078E-1;9.658491133E0
3.995888469E0;-1.484405100E-1;9.710882187E0;-2.920926213E-1;9.716408057E0
4.005782469E0;-1.005564705E-1;9.792284966E0;-3.399766386E-1;9.798700963E0
4.015756469E0;-1.963245422E-1;9.835380554E0;-5.793967843E-1;9.854387581E0
4.025837469E0;-3.399766386E-1;9.868899345E0;-5.458779931E-1;9.889830190E0
4.035763469E0;-6.560112834E-1;9.873687744E0;-1.675941199E-1;9.896875682E0
4.045789469E0;-8.619126081E-1;9.983820915E0;2.250549644E-1;1.002348358E1
4.055826469E0;-8.092401624E-1;1.007480049E1;3.112462163E-1;1.011203979E1
4.065945469E0;-5.554547906E-1;1.013226128E1;1.484405100E-1;1.014856065E1
4.075762469E0;-1.915361285E-1;1.009874249E1;-2.394201607E-2;1.010058707E1
4.085756469E0;-1.436521020E-2;9.945513725E0;-4.165911078E-1;9.954245213E0
4.095723469E0;-3.830722719E-2;9.801861763E0;-8.475474119E-1;9.838510969E0
4.105766469E0;-9.576806426E-2;9.715670586E0;-7.948749661E-1;9.748602600E0
4.115753469E0;-2.825157940E-1;9.715670586E0;-3.639186621E-1;9.726587629E0
4.125929469E0;6.224924326E-2;9.667786598E0;7.086837292E-1;9.693926207E0
4.135751469E0;-1.963245422E-1;9.753977776E0;1.158793569E0;9.824531964E0
4.145758469E0;-2.968810201E-1;9.749189377E0;-3.016694188E-1;9.758372625E0
4.156602469E0;2.681505978E-1;9.658209801E0;-5.937620401E-1;9.680158814E0
4.165807469E0;1.628057212E-1;9.816226959E0;-6.464344859E-1;9.838836057E0
4.175743469E0;-1.091755986E0;1.036210537E1;-9.624691010E-1;1.046381888E1
4.185749469E0;6.224924326E-2;9.562441826E0;-9.050082564E-1;9.605373943E0
4.195860469E0;5.698199868E-1;9.528923035E0;-1.675941199E-1;9.547416237E0
4.205765469E0;1.264138460E0;9.557653427E0;5.506663918E-1;9.656604919E0
4.215770469E0;1.096544385E0;9.581595421E0;4.453215301E-1;9.654413067E0
4.225777469E0;3.926490843E-1;9.624691010E0;6.703764945E-2;9.632930207E0
4.235897469E0;2.489969730E-1;9.619902611E0;-2.202665508E-1;9.625645074E0
4.245780469E0;1.244984865E-1;9.734824181E0;5.746084079E-2;9.735789822E0
4.255796469E0;-2.489969730E-1;9.658209801E0;4.118026793E-1;9.670191182E0
4.265746469E0;-2.489969730E-1;9.811438560E0;4.501099288E-1;9.824913489E0
4.275778469E0;-1.963245422E-1;9.835380554E0;8.140286058E-2;9.837676575E0
4.285737469E0;-2.537853718E-1;9.859322548E0;-4.644751251E-1;9.873519396E0
4.295760469E0;-2.585737705E-1;9.916783333E0;-4.501099288E-1;9.930360065E0
4.306344469E0;-3.064578176E-1;9.902418137E0;-1.915361285E-1;9.909010417E0
4.315736469E0;-3.495534360E-1;9.883264542E0;-4.213795066E-1;9.898417363E0
4.325803469E0;-3.399766386E-1;9.816226959E0;-6.081272364E-1;9.840920413E0
4.335732469E0;-2.298433632E-1;9.749189377E0;-8.954314590E-1;9.792921881E0
4.345778469E0;9.576806799E-3;9.706093788E0;-9.911994934E-1;9.756578538E0
4.355788469E0;1.915361285E-1;9.753977776E0;-8.954314590E-1;9.796865113E0
4.365782469E0;1.053448766E-1;9.696516991E0;-4.022258818E-1;9.705427603E0
4.375774469E0;1.580173075E-1;9.619902611E0;8.140286058E-2;9.621544686E0
4.385748469E0;2.777273953E-1;9.624691010E0;4.357447028E-1;9.638551913E0
4.395739469E0;4.405331016E-1;9.639056206E0;6.033388376E-1;9.667962128E0
4.405939469E0;3.256114423E-1;9.701305389E0;6.177040339E-1;9.726402590E0
4.415892469E0;5.410895944E-1;9.720458984E0;8.762778044E-1;9.774863866E0
4.425757469E0;4.788403511E-1;9.830592155E0;9.481038451E-1;9.887807194E0
4.435752469E0;4.405331016E-1;9.797073364E0;7.134721279E-1;9.832891660E0
4.445796469E0;3.639186621E-1;9.643844604E0;5.746083856E-1;9.667799664E0
4.455784469E0;2.011129409E-1;9.586383820E0;5.075707436E-1;9.601917996E0
4.465726469E0;2.250549644E-1;9.495404243E0;4.501099288E-1;9.508730222E0
4.475765469E0;1.675941199E-1;9.466673851E0;3.399766386E-1;9.474259111E0
4.485721469E0;1.915361285E-1;9.471462250E0;1.963245422E-1;9.475432790E0
4.495798469E0;2.346317619E-1;9.567230225E0;1.771709323E-1;9.571746746E0
4.505759469E0;1.915361285E-1;9.667786598E0;1.675941199E-1;9.671136003E0
4.515783469E0;2.442085743E-1;9.624691010E0;3.639186621E-1;9.634664065E0
4.525760469E0;1.771709323E-1;9.552865028E0;6.751648784E-1;9.578333227E0
4.535790469E0;2.394201607E-2;9.471462250E0;9.624691010E-1;9.520268754E0
4.545778469E0;-1.197100878E-1;9.457097054E0;1.144428372E0;9.526842682E0
4.555993469E0;-2.394201756E-1;9.543288231E0;1.316810966E0;9.636683216E0
4.565782469E0;-2.777273953E-1;9.562441826E0;1.374271750E0;9.664680493E0
4.575855469E0;-3.351882398E-1;9.581595421E0;1.446097851E0;9.695902277E0
4.585756469E0;-2.873041928E-1;9.586383820E0;1.412579060E0;9.694156902E0
4.595864469E0;-2.825157940E-1;9.552865028E0;1.489193439E0;9.672370057E0
4.605739469E0;-2.729389966E-1;9.524134636E0;1.393425345E0;9.629396162E0
4.615775469E0;-1.723825186E-1;9.423578262E0;1.201889277E0;9.501477824E0
4.625792469E0;-8.619125932E-2;9.346963882E0;1.398213744E0;9.451357809E0
4.635734469E0;1.388636976E-1;9.299078941E0;1.920149803E0;9.496269138E0
4.645745469E0;4.165911078E-1;9.260771751E0;2.308010340E0;9.553133167E0
4.655737469E0;4.788403511E-1;9.217676163E0;2.715024710E0;9.621133046E0
4.665837469E0;4.070142806E-1;9.193734169E0;3.342305660E0;9.790884318E0
4.675778469E0;3.112462163E-1;9.174580574E0;3.787626982E0;9.930554923E0
4.685784469E0;2.681505978E-1;9.136273384E0;3.639186621E0;9.838042252E0
4.695778469E0;2.011129409E-1;9.117119789E0;3.466804028E0;9.756077584E0
4.706027469E0;2.250549644E-1;9.188945770E0;3.193865061E0;9.730783531E0
4.715793469E0;2.154781520E-1;9.179368973E0;2.810792685E0;9.602489317E0
4.725805469E0;7.661445439E-2;9.131484985E0;2.485181332E0;9.463932273E0
4.735913469E0;2.873042040E-2;9.069235802E0;2.537853718E0;9.417673012E0
4.745775469E0;2.873042040E-2;9.030928612E0;2.619256735E0;9.403137927E0
4.755786469E0;1.388636976E-1;8.954314232E0;2.710236311E0;9.356516839E0
4.765767469E0;2.011129409E-1;8.935160637E0;2.719813108E0;9.342104975E0
4.775753469E0;1.580173075E-1;8.963891029E0;2.901772499E0;9.423194548E0
4.785823469E0;2.059013397E-1;9.030928612E0;3.260902643E0;9.603830121E0
4.795761469E0;3.782838583E-1;9.078812599E0;3.639186621E0;9.788340827E0
4.806000469E0;2.059013397E-1;8.872911453E0;3.945644379E0;9.712829793E0
4.815828469E0;5.267243832E-2;8.868123055E0;4.256890774E0;9.837047319E0
4.825786469E0;2.154781520E-1;8.825027466E0;4.343081951E0;9.838185882E0
4.835816469E0;2.777273953E-1;8.710105896E0;4.271255970E0;9.704983503E0
4.845720469E0;2.154781520E-1;8.681375504E0;4.189853191E0;9.641969780E0
4.855726469E0;2.442085743E-1;8.652645111E0;4.170699596E0;9.608467119E0
4.865789469E0;3.447650373E-1;8.604761124E0;4.352658749E0;9.649166550E0
4.875800469E0;3.830722570E-1;8.571242332E0;4.548983097E0;9.711137250E0
4.885840469E0;4.453215301E-1;8.552088737E0;4.783615112E0;9.809154224E0
4.895937469E0;5.267243981E-1;8.528146744E0;5.008669853E0;9.904216232E0
4.906114469E0;4.501099288E-1;8.480262756E0;5.066130638E0;9.888535534E0
4.915785469E0;2.537853718E-1;8.432378769E0;4.994304657E0;9.803698166E0
4.925781469E0;-6.224924326E-2;8.489839554E0;5.243301868E0;9.978650465E0
4.935923469E0;-2.681505978E-1;8.628703117E0;5.650316238E0;1.031758188E1
4.945805469E0;-1.723825186E-1;8.609549522E0;5.770026207E0;1.036567707E1
4.956047469E0;4.788403399E-3;8.403648376E0;5.477933407E0;1.003140486E1
4.965763469E0;4.788403213E-2;8.418013573E0;5.300762653E0;9.948031468E0
4.975812469E0;-9.576806799E-3;8.461109161E0;5.070919037E0;9.864313450E0
4.985985469E0;4.788403213E-2;8.494627953E0;4.754884720E0;9.734984624E0
4.995849469E0;1.723825186E-1;8.427590370E0;4.405331135E0;9.511095499E0
5.005789469E0;2.920926213E-1;8.360552788E0;4.357447147E0;9.432470867E0
5.015776469E0;4.453215301E-1;8.341399193E0;4.367023945E0;9.425929657E0
5.025813469E0;5.027823448E-1;8.346187592E0;4.271255970E0;9.389103523E0
5.035775469E0;6.081272364E-1;8.283937454E0;4.314351559E0;9.359864735E0
5.045761469E0;5.650315881E-1;8.264783859E0;4.534617901E0;9.443975458E0
5.055762469E0;4.548983276E-1;8.331821442E0;4.501099110E0;9.480826663E0
5.065727469E0;3.112462163E-1;8.255207062E0;4.611232281E0;9.460908042E0
5.075787469E0;2.537853718E-1;8.298302650E0;4.908113480E0;9.644470531E0
5.085769469E0;1.963245422E-1;8.274360657E0;4.936843872E0;9.637220295E0
5.095777469E0;1.101332754E-1;8.216899872E0;4.994304657E0;9.616270163E0
5.105747469E0;2.059013397E-1;8.116343498E0;5.037400246E0;9.554728064E0
5.115977469E0;2.825157940E-1;8.087613106E0;5.176264286E0;9.606404784E0
5.126558469E0;3.639186621E-1;8.202534676E0;5.679046631E0;9.983265124E0
5.135719469E0;2.011129409E-1;8.298302650E0;5.655104637E0;1.004402717E1
5.145736469E0;-1.675941199E-1;8.441955566E0;5.358223438E0;1.000026300E1
5.155897469E0;-3.543418646E-1;8.451532364E0;5.358223438E0;1.001321706E1
5.166096469E0;-4.213795066E-1;8.441955566E0;5.233725071E0;9.941632290E0
5.175751469E0;-5.410895944E-1;8.504204750E0;5.118803024E0;9.940644888E0
5.185730469E0;-4.357447028E-1;8.341399193E0;5.008669853E0;9.739383329E0
5.195750469E0;-1.771709323E-1;8.250418663E0;4.979939461E0;9.638495458E0
5.205747469E0;-1.197100878E-1;8.317456245E0;5.023035049E0;9.717267620E0
5.215718469E0;-1.580173075E-1;8.350975990E0;5.037400246E0;9.753931038E0
5.225761469E0;-2.537853718E-1;8.432378769E0;5.032611847E0;9.823268332E0
5.235805469E0;-1.628057212E-1;8.398859978E0;4.850652695E0;9.700318871E0
5.245744469E0;-9.097966552E-2;8.298302650E0;4.692635536E0;9.533673607E0
5.255752469E0;6.224924326E-2;8.106766701E0;4.553771496E0;9.298407183E0
5.265751469E0;4.788403399E-3;7.958326340E0;4.367023945E0;9.077768404E0
5.275849469E0;-1.819593310E-1;8.049305916E0;4.319139957E0;9.136706458E0
5.285716469E0;-4.405331016E-1;8.039729118E0;4.405331135E0;9.178140123E0
5.295729469E0;-4.309563041E-1;8.188169479E0;4.386177540E0;9.298945971E0
5.306023469E0;-2.681505978E-1;8.202534676E0;4.400542736E0;9.312263754E0
5.315844469E0;1.915361360E-2;8.145073891E0;4.601655483E0;9.355096404E0
5.325842469E0;2.394201756E-1;8.240841866E0;4.802768707E0;9.541246456E0
5.335739469E0;3.112462163E-1;8.360552788E0;4.946420670E0;9.719197218E0
5.345752469E0;1.484405100E-1;8.322244644E0;4.903325081E0;9.660454821E0
5.355710469E0;1.340752989E-1;8.192957878E0;4.845864296E0;9.519713008E0
5.365804469E0;2.442085743E-1;8.183381081E0;4.817133904E0;9.499060100E0
5.375767469E0;4.979939461E-1;8.097189903E0;4.783615112E0;9.417826492E0
5.385704469E0;6.655880809E-1;8.087613106E0;4.932055473E0;9.496192102E0
5.395876469E0;7.996633649E-1;8.178592682E0;4.979939461E0;9.608779152E0
5.406109469E0;9.768342972E-1;8.245630264E0;5.003881454E0;9.694506347E0
5.415742469E0;1.321599364E0;8.173804283E0;4.817133904E0;9.579273479E0
5.425757469E0;1.608903527E0;7.982268333E0;4.711789131E0;9.407769934E0
5.435732469E0;1.139639974E0;7.896077156E0;4.644751072E0;9.231496425E0
5.445737469E0;6.368576288E-1;7.852981567E0;4.850652695E0;9.252228850E0
5.455747469E0;2.825157940E-1;7.814674377E0;5.214571476E0;9.398973693E0
5.465710469E0;5.267243832E-2;7.766790390E0;5.516240597E0;9.526527052E0
5.475722469E0;-1.005564705E-1;7.637503624E0;5.549759388E0;9.441472474E0
5.485806469E0;-2.729389966E-1;7.460332394E0;5.640739441E0;9.356762077E0
5.495772469E0;-9.002198577E-1;7.560888767E0;5.861005783E0;9.608788869E0
5.505731469E0;-1.058237195E0;7.752425194E0;6.335057735E0;1.006741868E1
5.515725469E0;-7.326257229E-1;7.867346764E0;6.617573261E0;1.030651063E1
5.525751469E0;-1.244984865E-1;7.704541206E0;6.722918510E0;1.022609839E1
5.535794469E0;3.160346150E-1;7.603984833E0;6.636727333E0;1.009785190E1
5.545746469E0;4.692635238E-1;7.498639584E0;6.493074894E0;9.930248005E0
5.555799469E0;5.219359994E-1;7.493851185E0;6.397306919E0;9.866902178E0
5.565826469E0;5.267243981E-1;7.383718014E0;6.358999729E0;9.758770817E0
5.575881469E0;3.639186621E-1;7.378929615E0;6.272808552E0;9.691706051E0
5.585741469E0;1.628057212E-1;7.398083210E0;6.181828976E0;9.642258572E0
5.595736469E0;-2.873042040E-2;7.508216381E0;5.980715752E0;9.599119729E0
5.605711469E0;3.830722719E-2;7.469909191E0;5.712565422E0;9.403957383E0
5.616110469E0;1.292868853E-1;7.345410824E0;5.506663799E0;9.181237469E0
5.625762469E0;4.118026793E-1;7.278373241E0;5.386953831E0;9.064412284E0
5.635716469E0;6.272808313E-1;7.216124058E0;5.492298603E0;9.090174454E0
5.645763469E0;7.422025204E-1;7.259219646E0;5.707777023E0;9.264224361E0
5.655708469E0;8.619126081E-1;7.302315235E0;5.798756599E0;9.364415584E0
5.665825469E0;1.024718285E0;7.287950039E0;5.966350555E0;9.474259986E0
5.675774469E0;1.168370485E0;7.249642849E0;6.244078159E0;9.639031232E0
5.685737469E0;1.254561663E0;7.153874874E0;6.392518520E0;9.675543587E0
5.695795469E0;1.168370485E0;7.139509678E0;6.603208065E0;9.794898916E0
5.705976469E0;1.072602391E0;7.048529625E0;6.722918510E0;9.799483612E0
5.715743469E0;9.145850539E-1;7.096413612E0;6.689399719E0;9.795081448E0
5.725815469E0;1.019929886E0;6.986280441E0;6.727706909E0;9.752456697E0
5.735763469E0;9.816226959E-1;6.837840080E0;6.588842869E0;9.546333874E0
5.745763469E0;5.602431893E-1;6.612784863E0;6.679822922E0;9.416094219E0
5.755805469E0;7.182604820E-2;6.493074894E0;6.574477673E0;9.240613466E0
5.765903469E0;-1.340752989E-1;6.478709698E0;6.517016888E0;9.190384358E0
5.775815469E0;-1.244984865E-1;6.569689274E0;6.598419666E0;9.312113569E0
5.785910469E0;1.963245422E-1;6.737283707E0;6.306327343E0;9.230346669E0
5.795727469E0;3.064578176E-1;6.880935669E0;6.392518520E0;9.397099824E0
5.807587469E0;4.501099288E-1;6.876147270E0;6.430825710E0;9.425471847E0
5.815842469E0;6.560112834E-1;6.952761650E0;6.569689274E0;9.588120907E0
5.825757469E0;7.852981687E-1;7.019799232E0;6.770802498E0;9.784581797E0
5.835702469E0;9.337386489E-1;7.043741226E0;6.967126846E0;9.951231824E0
5.845723469E0;8.331822157E-1;7.019799232E0;7.283161640E0;1.014969050E1
5.855929469E0;5.315127969E-1;6.900089264E0;7.393294811E0;1.012692184E1
5.865780469E0;2.298433632E-1;6.871358871E0;7.359776020E0;1.007147972E1
5.875729469E0;7.182604820E-2;6.689399719E0;7.158663273E0;9.797943021E0
5.885794469E0;9.576806799E-3;6.598419666E0;6.842628479E0;9.505829701E0
5.895807469E0;4.788403399E-3;6.655880928E0;6.679822922E0;9.429783037E0
5.905770469E0;1.053448766E-1;6.794744492E0;6.603208065E0;9.475336775E0
5.915729469E0;2.968810201E-1;6.952761650E0;6.670246124E0;9.639565149E0
5.925820469E0;2.968810201E-1;6.866570473E0;6.732495308E0;9.621040561E0
5.935906469E0;3.208230138E-1;6.809109688E0;6.727706909E0;9.577522770E0
5.945962469E0;4.022258818E-1;6.756437302E0;6.775590897E0;9.577048745E0
5.955861469E0;5.506663918E-1;6.799532890E0;6.861782074E0;9.675791142E0
5.965738469E0;6.560112834E-1;6.737283707E0;6.995857239E0;9.734647454E0
5.975827469E0;5.793967843E-1;6.627150536E0;7.019799232E0;9.671215338E0
5.985775469E0;5.075707436E-1;6.497863293E0;6.962338448E0;9.536981288E0
5.995748469E0;5.506663918E-1;6.421248913E0;6.818686485E0;9.382438727E0
6.005751469E0;6.177040339E-1;6.416460514E0;6.766014099E0;9.345130849E0
6.015712469E0;6.320692301E-1;6.574477673E0;6.818686485E0;9.493037110E0
6.025764469E0;6.991068721E-1;6.670246124E0;6.909666061E0;9.629351944E0
6.035741469E0;7.661445141E-1;6.646304131E0;7.000645638E0;9.683458853E0
6.045753469E0;8.619126081E-1;6.593631268E0;7.216124058E0;9.812813717E0
6.055851469E0;7.900865674E-1;6.651092529E0;7.455543995E0;1.002229539E1
6.065797469E0;5.410895944E-1;6.617573261E0;7.441178799E0;9.972772720E0
6.075788469E0;2.777273953E-1;6.555324078E0;7.153874874E0;9.707076387E0
6.085773469E0;2.202665508E-1;6.473921299E0;6.818686485E0;9.405033744E0
6.095722469E0;4.548983276E-1;6.349422932E0;6.617573261E0;9.182286203E0
6.106321469E0;4.979939461E-1;6.406883717E0;6.555324078E0;9.179783804E0
6.115775469E0;3.591302633E-1;6.445190907E0;6.713341713E0;9.313346194E0
6.125774469E0;4.022258818E-1;6.531382084E0;6.991068840E0;9.575791409E0
6.135744469E0;5.458779931E-1;6.493074894E0;7.192182064E0;9.704920773E0
6.145771469E0;5.219359994E-1;6.507440090E0;7.441178799E0;9.899006800E0
6.155748469E0;3.926490843E-1;6.488286495E0;7.508216381E0;9.931029563E0
6.165754469E0;4.740519226E-1;6.502651691E0;7.479485989E0;9.922293833E0
6.175750469E0;6.703764796E-1;6.478709698E0;7.201758862E0;9.710222174E0
6.185760469E0;6.224924326E-1;6.512228489E0;7.015010834E0;9.592027612E0
6.195826469E0;6.799532771E-1;6.751648903E0;6.813898087E0;9.616460186E0
6.206165469E0;6.943184733E-1;6.909666061E0;6.598419666E0;9.579389611E0
6.215772469E0;7.613561153E-1;6.895300865E0;6.751648903E0;9.680371897E0
6.225773469E0;1.058237195E0;6.761225700E0;7.120356083E0;9.875905512E0
6.235771469E0;1.288080573E0;6.718130112E0;7.254431248E0;9.970917535E0
6.245735469E0;1.374271750E0;6.464344501E0;7.441178799E0;9.952261783E0
6.255712469E0;1.326387763E0;6.229712963E0;7.479485989E0;9.824018463E0
6.265794469E0;1.192312479E0;5.995080948E0;7.388506413E0;9.589193482E0
6.275739469E0;1.053448796E0;5.741295815E0;7.244854450E0;9.303770634E0
6.285746469E0;9.911994934E-1;5.621585369E0;7.072471619E0;9.088704709E0
6.295830469E0;8.571242094E-1;5.554547787E0;7.110779285E0;9.063710337E0
6.305808469E0;7.900865674E-1;5.669469833E0;6.804321289E0;8.891901550E0
6.315781469E0;8.331822157E-1;5.817910194E0;6.636727333E0;8.865011073E0
6.325756469E0;7.278373241E-1;5.865794182E0;6.406883717E0;8.716963205E0
6.335712469E0;7.134721279E-1;5.894524574E0;6.459556103E0;8.773843370E0
6.346189469E0;7.517793179E-1;5.990292549E0;6.521805286E0;8.887222354E0
6.355724469E0;7.374141216E-1;6.162675381E0;6.493074894E0;8.982336501E0
6.365715469E0;6.224924326E-1;6.268020153E0;6.670246124E0;9.174298710E0
6.375755469E0;5.602431893E-1;6.349422932E0;7.139509678E0;9.570874696E0
6.385710469E0;5.506663918E-1;6.325480938E0;7.556100368E0;9.869629950E0
6.395791469E0;4.501099288E-1;6.325480938E0;7.771578789E0;1.003054061E1
6.405700469E0;2.873041928E-1;6.306327343E0;7.699752808E0;9.956831903E0
6.415755469E0;2.011129409E-1;6.248866558E0;7.594407558E0;9.836859552E0
6.425761469E0;3.878606856E-1;6.311115742E0;7.402871609E0;9.735662580E0
6.435811469E0;5.363011956E-1;6.320692539E0;7.283161640E0;9.658323696E0
6.445763469E0;5.315127969E-1;6.258443356E0;7.168240070E0;9.530702219E0
6.455799469E0;5.889736414E-1;6.258443356E0;7.072471619E0;9.462286086E0
6.465741469E0;6.129156351E-1;6.253654957E0;7.086836815E0;9.471384373E0
6.475825469E0;6.655880809E-1;6.229712963E0;7.177816868E0;9.527506814E0
6.485745469E0;7.422025204E-1;6.210559368E0;7.259219646E0;9.582180447E0
6.495735469E0;7.182605267E-1;6.148310184E0;7.292738438E0;9.565649493E0
6.505733469E0;6.224924326E-1;6.143521786E0;7.316680431E0;9.574140656E0
6.515807469E0;5.793967843E-1;6.100425720E0;7.254431248E0;9.496192254E0
6.525908469E0;4.979939461E-1;6.110002518E0;7.101202011E0;9.381215206E0
6.535781469E0;4.213795066E-1;6.148310184E0;7.005434036E0;9.330347520E0
6.545757469E0;4.070142806E-1;6.258443356E0;7.101202011E0;9.474219961E0
6.555772469E0;5.075707436E-1;6.277596951E0;7.249642849E0;9.603289695E0
6.565747469E0;7.278373241E-1;6.311115742E0;7.484274387E0;9.817040908E0
6.575749469E0;7.900865674E-1;6.349422932E0;7.560888767E0;9.904869878E0
6.585759469E0;8.619126081E-1;6.325480938E0;7.656657219E0;9.968901755E0
6.595804469E0;7.182605267E-1;6.287173748E0;7.503427982E0;9.815593890E0
6.605726469E0;6.703764796E-1;6.133944988E0;7.187393665E0;9.472766937E0
6.615724469E0;5.315127969E-1;6.052541733E0;7.082048416E0;9.331193763E0
6.625920469E0;4.165911078E-1;5.956773758E0;7.067683220E0;9.252504950E0
6.635797469E0;4.357447028E-1;6.047753334E0;7.177816868E0;9.396076246E0
6.645763469E0;4.979939461E-1;6.095637321E0;7.230489254E0;9.470204178E0
6.655729469E0;6.177040339E-1;6.153098583E0;7.326257229E0;9.587295001E0
6.665768469E0;7.374141216E-1;6.143521786E0;7.326257229E0;9.589613366E0
6.675748469E0;7.469909191E-1;6.157886982E0;7.196970463E0;9.501260514E0
6.685762469E0;5.650315881E-1;6.205770969E0;7.144298077E0;9.480076425E0
6.695729469E0;4.836287498E-1;6.239289761E0;7.187393665E0;9.530018950E0
6.705822469E0;5.458779931E-1;6.248866558E0;7.177816868E0;9.532437833E0
6.715704469E0;5.937620401E-1;6.301538944E0;7.153874874E0;9.551956456E0
6.725814469E0;6.464344859E-1;6.287173748E0;7.249642849E0;9.617887123E0
6.735725469E0;6.943184733E-1;6.244078159E0;7.307103634E0;9.636615263E0
6.745743469E0;7.134721279E-1;6.234501362E0;7.340622425E0;9.657266036E0
6.755728469E0;7.948749661E-1;6.282385349E0;7.311892033E0;9.672846375E0
6.765737469E0;8.236053586E-1;6.277596951E0;7.302315235E0;9.664903365E0
6.775733469E0;7.182605267E-1;6.277596951E0;7.216124058E0;9.591484143E0
6.785703469E0;5.793967843E-1;6.196194172E0;7.144298077E0;9.474677718E0
6.795915469E0;5.267243981E-1;6.162675381E0;7.139509678E0;9.446089396E0
6.806067469E0;4.979939461E-1;6.162675381E0;7.139509678E0;9.444530918E0
6.816072469E0;5.171475410E-1;6.200982571E0;7.192182064E0;9.510368514E0
6.825769469E0;5.171475410E-1;6.191405773E0;7.182605267E0;9.496881880E0
6.835711469E0;5.841852427E-1;6.177040577E0;7.230489254E0;9.527700538E0
6.845955469E0;5.889736414E-1;6.215347767E0;7.244854450E0;9.563752078E0
6.855721469E0;5.267243981E-1;6.253654957E0;7.182605267E0;9.538105542E0
6.865701469E0;4.118026793E-1;6.200982571E0;7.177816868E0;9.494357339E0
6.875754469E0;2.729389966E-1;6.191405773E0;7.192182064E0;9.493970928E0
6.885809469E0;2.250549644E-1;6.220136166E0;7.278373241E0;9.576818924E0
6.895748469E0;2.585737705E-1;6.244078159E0;7.273584843E0;9.589598997E0
6.905711469E0;3.926490843E-1;6.277596951E0;7.326257229E0;9.655901913E0
6.915818469E0;4.022258818E-1;6.205770969E0;7.340622425E0;9.620712893E0
6.925745469E0;3.639186621E-1;6.110002518E0;7.350199223E0;9.565040312E0
6.935764469E0;3.878606856E-1;6.047753334E0;7.249642849E0;9.448972311E0
6.945745469E0;6.033388376E-1;6.086060524E0;7.067683220E0;9.346459038E0
6.955735469E0;8.044517636E-1;6.148310184E0;6.943184853E0;9.308956798E0
6.965780469E0;8.236053586E-1;6.234501362E0;6.847416878E0;9.297013010E0
6.975878469E0;8.667010069E-1;6.325480938E0;6.852205276E0;9.365660515E0
6.985716469E0;7.948749661E-1;6.320692539E0;6.933608055E0;9.415832467E0
6.995738469E0;7.517793179E-1;6.282385349E0;7.082048416E0;9.496786172E0
7.005914469E0;6.129156351E-1;6.167463779E0;7.096413612E0;9.421908575E0
7.015780469E0;3.830722570E-1;6.138733387E0;7.254431248E0;9.510918183E0
7.025764469E0;1.723825186E-1;6.186617374E0;7.398083210E0;9.645495604E0
7.035713469E0;2.106897533E-1;6.234501362E0;7.517793179E0;9.768859282E0
7.045784469E0;3.543418646E-1;6.301538944E0;7.460332394E0;9.771975780E0
7.055730469E0;4.788403511E-1;6.330269337E0;7.311892033E0;9.683251678E0
7.065767469E0;5.027823448E-1;6.291962147E0;7.216124058E0;9.587180199E0
7.075709469E0;5.363011956E-1;6.263231754E0;7.192182064E0;9.552129282E0
7.085918469E0;6.033388376E-1;6.244078159E0;7.177816868E0;9.532763755E0
7.096153469E0;6.368576288E-1;6.210559368E0;7.043741226E0;9.412275270E0
7.105731469E0;6.847416759E-1;6.253654957E0;7.005434036E0;9.415581635E0
7.115766469E0;6.895300746E-1;6.205770969E0;6.986280441E0;9.369907121E0
7.125761469E0;6.799532771E-1;6.133944988E0;6.933608055E0;9.282377833E0
7.135933469E0;5.698199868E-1;6.052541733E0;7.029376030E0;9.293550646E0
7.145737469E0;3.687070608E-1;6.047753334E0;7.144298077E0;9.367617642E0
7.155747469E0;3.399766386E-1;6.057330132E0;7.311892033E0;9.501084019E0
7.165824469E0;7.517793179E-1;5.985504150E0;5.985504150E0;8.498099318E0
7.175730469E0;1.063025594E0;6.114790916E0;6.488286495E0;8.978783493E0
7.185800469E0;7.852981687E-1;6.253654957E0;7.560888767E0;9.843369976E0
7.195803469E0;5.363011956E-1;6.306327343E0;7.967903137E0;1.017569968E1
7.205817469E0;6.464344859E-1;6.291962147E0;8.154650688E0;1.032012563E1
7.215731469E0;6.177040339E-1;6.349422932E0;8.154650688E0;1.035350461E1
7.225770469E0;5.027823448E-1;6.330269337E0;8.164227486E0;1.034309965E1
7.235883469E0;3.782838583E-1;6.349422932E0;8.063671112E0;1.027039737E1
7.245727469E0;3.639186621E-1;6.344634533E0;7.642292023E0;9.939388890E0
7.255969469E0;1.723825186E-1;6.258443356E0;6.971915245E0;9.370455226E0
7.265836469E0;4.213795066E-1;6.234501362E0;6.119579315E0;8.746188822E0
