"Time (s)";"Acceleration x (m/s^2)";"Acceleration y (m/s^2)";"Acceleration z (m/s^2)";"Absolute acceleration (m/s^2)"
3.451927900E-2;1.029506683E0;5.655104637E0;8.034940720E0;9.879289693E0
5.615327900E-2;1.379060149E0;5.659893036E0;7.862558365E0;9.785500504E0
7.197277900E-2;1.551442742E0;5.774814606E0;7.436390400E0;9.542293251E0
8.501102900E-2;1.594538331E0;5.765237808E0;7.091625214E0;9.277481751E0
9.644315400E-2;1.570596337E0;5.741295815E0;6.847416878E0;9.072836843E0
1.071157160E-1;1.537077546E0;5.774814606E0;6.689399719E0;8.969902994E0
1.175939970E-1;1.498770237E0;5.808333397E0;6.722918510E0;9.010032318E0
1.277426380E-1;1.752555609E0;5.889736176E0;6.852205276E0;9.203975257E0
1.378194580E-1;1.881842494E0;5.913678169E0;6.660669327E0;9.103704550E0
1.479153680E-1;1.728613615E0;5.956773758E0;6.449979305E0;8.948379276E0
1.578508230E-1;1.470039845E0;5.889736176E0;6.454767704E0;8.860814606E0
1.679015510E-1;1.254561663E0;5.947196960E0;6.799532890E0;9.120127421E0
1.779689150E-1;1.288080573E0;5.956773758E0;7.187393665E0;9.423424689E0
1.879590970E-1;1.369483352E0;5.918466568E0;7.426813602E0;9.594857552E0
1.979151880E-1;1.297657371E0;5.765237808E0;7.709329605E0;9.713683369E0
2.079512330E-1;1.144428372E0;5.770026207E0;7.939172745E0;9.880960611E0
2.179907560E-1;1.125274777E0;5.774814606E0;7.924807549E0;9.870020351E0
2.279500170E-1;1.048660398E0;5.817910194E0;7.814674377E0;9.798821525E0
2.378991480E-1;9.193734527E-1;5.827486992E0;7.666234016E0;9.673468674E0
2.478887130E-1;8.619126081E-1;5.856217384E0;7.541735172E0;9.587280365E0
2.579414960E-1;9.864110947E-1;5.980715752E0;7.201758862E0;9.413144982E0
2.679648870E-1;9.864110947E-1;5.990292549E0;6.924031258E0;9.208627505E0
2.778815830E-1;9.097966552E-1;5.889736176E0;7.235277653E0;9.373684702E0
2.879219310E-1;9.433154464E-1;5.822698593E0;7.637503624E0;9.650135986E0
2.979106050E-1;1.010353088E0;5.851428986E0;7.886500359E0;9.872027271E0
3.078664420E-1;1.216254473E0;5.928043365E0;7.867346764E0;9.925528610E0
3.178893600E-1;1.307234168E0;5.899312973E0;7.479485989E0;9.615272507E0
3.279808190E-1;1.106121182E0;5.817910194E0;7.153874874E0;9.287061366E0
3.379610490E-1;1.024718285E0;5.817910194E0;7.149086475E0;9.274026311E0
3.479411640E-1;1.206677675E0;5.837063789E0;7.359776020E0;9.470675148E0
3.579052210E-1;1.249773264E0;5.928043365E0;7.661445618E0;9.767363017E0
3.679362500E-1;1.359906554E0;6.014234543E0;7.656657219E0;9.830806820E0
3.779317640E-1;1.436521053E0;6.033388138E0;7.388506413E0;9.646522283E0
3.879140210E-1;1.307234168E0;5.995080948E0;7.101202011E0;9.384930833E0
3.979606500E-1;1.316810966E0;6.042964935E0;6.861782074E0;9.237719933E0
4.080009640E-1;1.216254473E0;6.004657745E0;6.794744492E0;9.148974931E0
4.180076210E-1;1.216254473E0;5.837063789E0;6.967126846E0;9.170138773E0
4.279009500E-1;1.379060149E0;5.712565422E0;7.613561630E0;9.617771639E0
4.378546140E-1;1.647210717E0;5.793968201E0;8.221688271E0;1.019213072E1
4.478504460E-1;1.709460020E0;5.904101372E0;8.259995461E0;1.029602795E1
4.578348620E-1;1.642422318E0;5.923254967E0;8.097189903E0;1.016597191E1
4.678645700E-1;1.470039845E0;5.865794182E0;7.805097580E0;9.873606573E0
4.779209240E-1;1.350329757E0;5.856217384E0;7.465120792E0;9.583668449E0
4.878781010E-1;1.326387763E0;6.004657745E0;7.340622425E0;9.576009436E0
4.979766900E-1;1.364694953E0;6.143521786E0;7.235277653E0;9.589290639E0
5.079514840E-1;1.345541358E0;6.239289761E0;6.914454460E0;9.410042441E0
5.178858810E-1;1.302445769E0;6.191405773E0;6.742072105E0;9.245831856E0
5.278740800E-1;1.350329757E0;6.196194172E0;6.617573261E0;9.165614466E0
5.379251790E-1;1.589749932E0;6.258443356E0;6.449979305E0;9.126754687E0
5.479077290E-1;1.675941229E0;6.291962147E0;6.177040577E0;8.975154425E0
5.578800040E-1;1.723825216E0;6.287173748E0;6.047753334E0;8.892437658E0
5.678626410E-1;1.723825216E0;6.229712963E0;5.966350555E0;8.796489978E0
5.781024600E-1;1.623268723E0;6.272808552E0;6.009446144E0;8.837226456E0
5.880003690E-1;1.517923832E0;6.229712963E0;6.339846134E0;9.017043050E0
5.979208240E-1;1.379060149E0;6.239289761E0;6.833051682E0;9.355273320E0
6.078890510E-1;1.268926859E0;6.277596951E0;7.077260017E0;9.544946736E0
6.178796650E-1;1.307234168E0;6.287173748E0;7.302315235E0;9.724259494E0
6.278644720E-1;1.254561663E0;6.296750546E0;7.479485989E0;9.857266510E0
6.378993750E-1;1.192312479E0;6.335057735E0;7.503427982E0;9.892219015E0
6.478853270E-1;1.182735682E0;6.320692539E0;7.632715225E0;9.980398768E0
6.578588030E-1;1.192312479E0;6.378153324E0;7.924807549E0;1.024231534E1
6.678410410E-1;1.120486379E0;6.301538944E0;7.891288757E0;1.016057681E1
6.778241600E-1;1.091755986E0;6.330269337E0;7.637503624E0;9.979764657E0
6.879127190E-1;1.134851575E0;6.248866558E0;7.532158375E0;9.852392153E0
6.978884990E-1;1.197100878E0;6.358999729E0;7.929595947E0;1.023466755E1
7.078718890E-1;1.379060149E0;6.483498096E0;8.183381081E0;1.053115760E1
7.178435840E-1;1.417367458E0;6.445190907E0;8.226476669E0;1.054629483E1
7.278489310E-1;1.431732655E0;6.301538944E0;8.192957878E0;1.043474055E1
7.378986050E-1;1.163581967E0;6.287173748E0;7.848193169E0;1.012307329E1
7.479129420E-1;9.002198577E-1;6.268020153E0;7.254431248E0;9.629394849E0
7.578756100E-1;6.560112834E-1;6.483498096E0;6.665457726E0;9.321717924E0
7.678539440E-1;4.118026793E-1;6.928819656E0;6.253654957E0;9.342715001E0
7.778686110E-1;4.261679053E-1;7.072471619E0;6.009446144E0;9.290582158E0
7.878284450E-1;4.022258818E-1;7.268796444E0;6.196194172E0;9.559812217E0
7.978453620E-1;7.852981687E-1;7.110779285E0;6.406883717E0;9.603542795E0
8.078283200E-1;1.034295082E0;6.947973251E0;6.358999729E0;9.475282380E0
8.178157990E-1;1.134851575E0;6.947973251E0;6.224924564E0;9.397441473E0
8.278235390E-1;1.063025594E0;7.125144482E0;5.971138954E0;9.356933670E0
8.378334090E-1;1.163581967E0;7.125144482E0;5.669469833E0;9.179569438E0
8.478458440E-1;1.316810966E0;7.125144482E0;5.214571476E0;8.927117714E0
8.578405610E-1;1.106121182E0;7.038952827E0;4.884171486E0;8.638604753E0
8.678249200E-1;8.810662031E-1;7.067683220E0;5.104437828E0;8.762631414E0
8.778185990E-1;9.433154464E-1;7.311892033E0;5.645527840E0;9.285773727E0
8.878404390E-1;9.911994934E-1;7.465120792E0;5.573701382E0;9.368919467E0
8.978668590E-1;1.158793569E0;7.560888767E0;4.979939461E0;9.127411381E0
9.078720690E-1;1.556231141E0;7.493851185E0;4.568136692E0;8.913334605E0
9.178831740E-1;2.082955360E0;7.436390400E0;4.357447147E0;8.867127543E0
9.278562260E-1;2.456450939E0;7.417236805E0;4.481945515E0;9.007629468E0
9.378307520E-1;4.879383087E0;7.297526836E0;5.252878666E0;1.023010320E1
9.478410150E-1;3.284844637E0;7.388506413E0;5.564124584E0;9.815279603E0
9.578476470E-1;1.522712231E0;8.054094315E0;6.234501362E0;1.029835399E1
9.678254630E-1;7.900865674E-1;8.097189903E0;6.545747280E0;1.044200788E1
9.778663710E-1;9.241618514E-1;7.575253963E0;6.507440090E0;1.002922351E1
9.878593250E-1;1.393425345E0;7.235277653E0;6.382941723E0;9.748477930E0
9.978893020E-1;1.522712231E0;7.460332394E0;6.540958881E0;1.003789595E1
1.007870290E0;1.666364431E0;7.661445618E0;6.550535679E0;1.021685064E1
1.017892284E0;1.661576033E0;7.632715225E0;6.373364925E0;1.008161481E1
1.027878781E0;1.752555609E0;7.575253963E0;6.062118530E0;9.859269996E0
1.037936530E0;2.063801765E0;7.632715225E0;5.698200226E0;9.746132836E0
1.047876404E0;2.264914751E0;7.584830761E0;5.319916248E0;9.537347922E0
1.057878341E0;2.456450939E0;7.560888767E0;4.850652695E0;9.312895454E0
1.067847310E0;2.561795712E0;7.675810814E0;4.371812344E0;9.197478572E0
1.077852794E0;2.394201756E0;7.738059998E0;4.118026733E0;9.086689097E0
1.087832036E0;2.145204782E0;7.733271599E0;4.089296341E0;9.007093746E0
1.097816157E0;1.929726601E0;7.728483200E0;4.137180328E0;8.976054723E0
1.107891218E0;1.886630893E0;7.733271599E0;4.228160381E0;9.013334897E0
1.117870748E0;2.102109194E0;7.699752808E0;4.122815132E0;8.983465978E0
1.127876513E0;2.331952572E0;7.685387611E0;3.940855980E0;8.946146175E0
1.137831896E0;2.375048161E0;7.594407558E0;4.007893562E0;8.909494415E0
1.147798587E0;2.317587137E0;7.474697590E0;4.405331135E0;8.980493116E0
1.157809933E0;2.178723574E0;7.465120792E0;4.539406300E0;9.004503007E0
1.167821606E0;2.528276920E0;7.532158375E0;4.683058739E0;9.222615308E0
1.177830942E0;3.275267839E0;7.814674377E0;4.592078686E0;9.637619089E0
1.187809610E0;4.194641590E0;7.805097580E0;4.687847137E0;1.002449386E1
1.197894444E0;4.606443882E0;8.116343498E0;4.663905144E0;1.043294629E1
1.207874861E0;4.453215122E0;8.513781548E0;4.218583584E0;1.049342883E1
1.217846070E0;4.194641590E0;7.575253963E0;4.261679173E0;9.650979228E0
1.227828674E0;3.706224203E0;7.762001991E0;4.376600742E0;9.650875961E0
1.237864476E0;3.007117271E0;8.288725853E0;4.352658749E0;9.833176940E0
1.247834377E0;2.964021683E0;8.221688271E0;4.419696331E0;9.793635597E0
1.257878328E0;2.533065319E0;8.178592682E0;4.491522312E0;9.668483379E0
1.267847803E0;2.911349297E0;8.710105896E0;4.797980309E0;1.036158842E1
1.277832541E0;3.337517262E0;8.125920296E0;5.094861031E0;1.015515687E1
1.287835410E0;3.337517262E0;8.073247910E0;4.625597477E0;9.884963596E0
1.297818344E0;3.184288263E0;8.106766701E0;3.873818398E0;9.532356847E0
1.307826811E0;3.016694069E0;8.188169479E0;3.251325846E0;9.312232938E0
1.317836545E0;2.758120298E0;8.346187592E0;2.657563925E0;9.183067075E0
1.327847412E0;2.576161146E0;8.619126320E0;2.140416384E0;9.247017198E0
1.337895345E0;2.600103140E0;8.643068314E0;1.747767210E0;9.193359366E0
1.347847812E0;2.954444885E0;8.676587105E0;1.149216771E0;9.237565023E0
1.357840545E0;3.208230257E0;8.681375504E0;1.963245422E-1;9.257297950E0
1.367843412E0;3.050212860E0;8.757989883E0;-1.043871999E0;9.332515954E0
1.377886845E0;2.801215887E0;9.045293808E0;-1.805228114E0;9.639657622E0
1.387875062E0;2.298433542E0;9.150638580E0;-2.193088770E0;9.686414276E0
1.398044670E0;2.006340981E0;9.265560150E0;-1.977610588E0;9.684366405E0
1.407994974E0;2.039859772E0;9.198522568E0;-1.101332784E0;9.486136159E0
1.418010126E0;2.422932148E0;9.275136948E0;1.628057212E-1;9.587766752E0
1.428017202E0;3.040636063E0;9.188945770E0;1.369483352E0;9.775360693E0
1.438022740E0;3.069366693E0;9.102754593E0;2.154781580E0;9.845010753E0
1.447946509E0;2.801215887E0;8.930372238E0;2.346317768E0;9.649018905E0
1.457931394E0;2.772485495E0;8.954314232E0;2.154781580E0;9.618186047E0
1.467858836E0;2.983175278E0;8.992621422E0;2.159569979E0;9.717526294E0
1.477903057E0;3.088520288E0;8.968679428E0;2.159569979E0;9.728304618E0
1.487870668E0;3.107673883E0;8.963891029E0;2.284068346E0;9.758378326E0
1.497900473E0;2.940079689E0;8.992621422E0;2.082955360E0;9.687621568E0
1.507843876E0;3.055001259E0;8.968679428E0;1.972822189E0;9.677926987E0
1.518072577E0;2.887407303E0;9.016563416E0;1.843535304E0;9.645421669E0
1.527980428E0;2.116474390E0;9.069235802E0;1.484405041E0;9.430480380E0
1.537905353E0;1.781286120E0;9.203310966E0;1.206677675E0;9.451454068E0
1.547909816E0;2.274491549E0;9.074024200E0;1.230619669E0;9.435340575E0
1.557877047E0;2.662352324E0;9.074024200E0;1.316810966E0;9.547775982E0
1.567862663E0;2.791639090E0;9.064447403E0;1.249773264E0;9.566576647E0
1.577834471E0;2.925714493E0;9.069235802E0;1.206677675E0;9.605566841E0
1.587811875E0;3.193865061E0;9.054870605E0;1.063025594E0;9.660304298E0
1.597805577E0;3.270479441E0;9.107542992E0;1.110909581E0;9.740507955E0
1.607858428E0;2.935291290E0;8.997409821E0;1.297657371E0;9.552655813E0
1.617837353E0;2.633621931E0;8.949525833E0;1.484405041E0;9.446345084E0
1.627830816E0;2.667140722E0;8.810662270E0;1.249773264E0;9.289959229E0
1.637808547E0;2.997540474E0;8.690952301E0;7.182605267E-1;9.221377282E0
1.647842913E0;3.040636063E0;8.604761124E0;2.298433632E-1;9.129085914E0
1.657828596E0;2.681505919E0;8.710105896E0;8.619125932E-2;9.113937000E0
1.667809437E0;2.576161146E0;8.734047890E0;5.602431893E-1;9.123270862E0
1.677914358E0;2.628833532E0;8.508993149E0;1.393425345E0;9.014175744E0
1.687937818E0;2.231395960E0;8.829815865E0;1.383848548E0;9.211938609E0
1.697921548E0;1.613691926E0;8.872911453E0;1.905784607E0;9.217623026E0
1.707877413E0;1.608903527E0;9.169792175E0;2.255337954E0;9.579154889E0
1.717836346E0;1.771709204E0;9.260771751E0;2.063801765E0;9.651949267E0
1.727855312E0;1.991975784E0;9.131484985E0;1.417367458E0;9.453090292E0
1.737889295E0;2.317587137E0;8.887276649E0;8.906430602E-1;9.227575058E0
1.747842787E0;2.303221941E0;8.461109161E0;1.024718285E0;8.828660550E0
1.757835533E0;2.499546528E0;8.207323074E0;1.335964561E0;8.682896187E0
1.767980406E0;2.705447912E0;7.977479935E0;1.493981838E0;8.555209889E0
1.778008342E0;3.303998232E0;7.259219646E0;2.212242365E0;8.276876855E0
1.787956810E0;3.011905670E0;6.732495308E0;1.958456993E0;7.631095769E0
1.797886044E0;2.686294317E0;6.382941723E0;1.651999116E0;7.119495999E0
1.807842661E0;2.547430515E0;6.210559368E0;1.101332784E0;6.802454248E0
1.817839470E0;2.719813108E0;6.215347767E0;-6.224924326E-2;6.784674360E0
1.827826874E0;2.614468336E0;6.268020153E0;-1.364694953E0;6.927186560E0
1.837871576E0;2.633621931E0;6.517016888E0;-2.006340981E0;7.309779594E0
1.847835927E0;2.767697096E0;6.732495308E0;-1.814804912E0;7.502010207E0
1.857851103E0;2.604891539E0;6.938396454E0;-1.987187386E0;7.673051478E0
1.867867191E0;2.389413357E0;7.196970463E0;-2.054224968E0;7.856559059E0
1.877839235E0;2.624045134E0;7.900865555E0;-1.010353088E0;8.386304475E0
1.887834257E0;2.729389906E0;8.542511940E0;4.932055473E-1;8.981499386E0
1.897871768E0;2.006340981E0;8.777143478E0;1.991975784E0;9.221259095E0
1.907988523E0;1.474828243E0;8.604761124E0;2.834734917E0;9.178929915E0
1.917889901E0;1.484405041E0;8.173804283E0;2.317587137E0;8.624717092E0
1.927845590E0;2.303221941E0;8.097189903E0;2.537853718E-1;8.422216018E0
1.937914934E0;3.835511208E0;7.819462776E0;-2.140416384E0;8.968641292E0
1.947936106E0;4.285621166E0;7.723694801E0;-3.509899616E0;9.504809597E0
1.957879692E0;3.394978046E0;8.164227486E0;-2.863465309E0;9.294079833E0
1.967903485E0;2.710236311E0;8.786720276E0;-8.044517636E-1;9.230329177E0
1.977885382E0;2.011129379E0;9.552865028E0;1.101332784E0;9.824194905E0
1.987861830E0;1.819593310E0;1.012747288E1;1.915361404E0;1.046638601E1
1.997839054E0;2.834734917E0;1.039083576E1;1.288080573E0;1.084731955E1
2.007869166E0;3.873818398E0;1.063983250E1;4.596867263E-1;1.133242324E1
2.017882722E0;4.611232281E0;1.075954247E1;1.053448766E-1;1.170650737E1
2.027841500E0;5.750872612E0;1.085052204E1;-1.450886250E0;1.236573634E1
2.037814889E0;6.124367714E0;1.147301483E1;-2.638410330E0;1.327023580E1
2.047876584E0;6.761225700E0;1.245942593E1;-3.466804028E0;1.459349847E1
2.057842431E0;6.890512466E0;1.357512379E1;-3.313575268E0;1.558020953E1
2.067825355E0;6.449979305E0;1.479616642E1;-2.346317768E0;1.631054815E1
2.077829817E0;5.262455463E0;1.621353340E1;-1.465251446E0;1.710903459E1
2.087807548E0;4.271255970E0;1.793735886E1;-9.528923035E-1;1.846349030E1
2.097854413E0;5.094861031E0;1.950795555E1;-6.272808313E-1;2.017204551E1
2.107813846E0;6.354211330E0;2.089659309E1;-1.436521020E-2;2.184133263E1
2.117814062E0;7.019799232E0;2.210805893E1;1.125274777E0;2.322305092E1
2.127828670E0;8.049305916E0;2.223734474E1;1.034295082E0;2.367193683E1
2.137817474E0;8.427590370E0;2.183511925E1;-1.584961534E0;2.345866183E1
2.147860376E0;9.064447403E0;2.087743950E1;-4.663905144E0;2.323324553E1
2.157847327E0;9.658209801E0;2.015917778E1;-3.462015629E0;2.261988102E1
2.167820303E0;1.084094524E1;2.019269753E1;-4.448426723E0;2.334651210E1
2.177917791E0;1.258392429E1;1.980483627E1;-6.938396454E0;2.446891979E1
2.187969035E0;1.265575027E1;2.013523674E1;-8.944737434E0;2.540874065E1
2.198082657E0;1.270842266E1;2.190694618E1;-1.011789608E1;2.727251581E1
2.208004468E0;9.682151794E0;2.270660973E1;-1.043393135E1;2.679927447E1
2.217905373E0;5.640739441E0;2.273534012E1;-6.210559368E0;2.423395716E1
2.227879326E0;5.391742229E0;2.075294113E1;-1.618480325E0;2.150290512E1
2.237848302E0;2.810792685E0;1.385763931E1;9.816226959E-1;1.417385995E1
2.247816790E0;-2.633621991E-1;9.337387085E0;4.012681961E0;1.016650253E1
2.257817034E0;-1.182735682E0;3.983951569E0;9.581595421E0;1.044402722E1
2.267827656E0;-1.335964561E0;9.002198577E-1;1.650083733E1;1.657928918E1
2.277876967E0;-1.766920805E0;-1.005564705E-1;1.997243118E1;2.005068897E1
2.287852123E0;4.309562966E-2;-1.273715258E0;1.661097145E1;1.665978932E1
2.299071701E0;3.256114244E0;-4.802768707E0;1.364694953E0;5.960810309E0
2.308448490E0;5.401319027E0;-5.846640587E0;-8.140285492E0;1.138515267E1
2.318208384E0;4.137180328E0;-3.768473387E0;-1.077390790E0;5.698984440E0
2.328063831E0;2.834734917E0;-1.359906554E0;1.493981838E0;3.480955274E0
2.337988055E0;1.369483352E0;1.963245422E-1;2.523488522E0;2.877850291E0
2.347899167E0;-3.591302633E-1;1.254561663E0;5.348646641E0;5.505535433E0
2.357879223E0;-1.264138460E0;1.450886250E0;5.195417881E0;5.540350523E0
2.367928251E0;-1.086967587E0;2.681505978E-1;2.777273893E0;2.994437102E0
2.377918765E0;3.830722719E-2;-1.283292055E0;-1.733402014E0;2.157078692E0
2.387880522E0;-5.363011956E-1;-2.159569979E0;-2.365471363E0;3.247586217E0
2.397881900E0;-1.197100878E0;-2.360682964E0;-1.948880196E0;3.286945175E0
2.407849589E0;-9.481038451E-1;-2.580949545E0;-1.584961534E0;3.173689417E0
2.417858934E0;-1.077390790E0;-2.188300371E0;-1.699883223E0;2.973051025E0
2.427844606E0;-9.002198577E-1;-9.959878922E-1;-1.628057122E0;2.110203229E0
2.437826442E0;-6.655880809E-1;-3.351882473E-2;-1.383848548E0;1.535958270E0
2.447823860E0;-9.816226959E-1;1.254561663E0;-1.541865945E0;2.216948054E0
2.458073569E0;-5.698199868E-1;1.134851575E0;-1.948880196E0;2.326094781E0
2.467932924E0;-1.077390790E0;1.565807939E0;-1.800439715E0;2.618035253E0
2.477880101E0;-8.810662031E-1;1.915361404E0;-8.619126081E-1;2.277669930E0
2.487887690E0;-3.830722570E-1;1.632845521E0;2.394201607E-2;1.677349716E0
2.497871984E0;-4.309562966E-2;1.230619669E0;-1.436520964E-1;1.239724940E0
2.507862131E0;-1.388636976E-1;8.667010069E-1;-7.086837292E-1;1.128134030E0
2.517879205E0;-3.303998411E-1;4.788403511E-1;-9.768342972E-1;1.136950914E0
2.528634742E0;-5.267243981E-1;1.436520964E-1;-8.236053586E-1;9.881296995E-1
2.538283010E0;-9.002198577E-1;-1.340752989E-1;-2.585737705E-1;9.461672013E-1
2.548060644E0;-1.407790542E0;-1.628057212E-1;3.016694188E-1;1.448925240E0
2.557974961E0;-1.350329757E0;-1.819593310E-1;6.560112834E-1;1.512233598E0
2.567879620E0;-4.261679053E-1;-3.160346150E-1;4.692635238E-1;7.083115248E-1
2.577878949E0;1.580173075E-1;4.788403399E-3;4.022258818E-1;4.321782714E-1
2.587896614E0;6.033388376E-1;5.746083856E-1;6.081272364E-1;1.031509227E0
2.597851446E0;1.312022567E0;1.130063176E0;1.484405041E0;2.280768362E0
2.607856362E0;1.987187386E0;1.900996208E0;2.691082716E0;3.847678063E0
2.617855320E0;2.059013367E0;2.676717520E0;2.705447912E0;4.327100777E0
2.627831299E0;2.183511972E0;2.973598480E0;2.959233284E0;4.729384113E0
2.637835289E0;1.762132406E0;3.955221176E0;2.652775526E0;5.078001887E0
2.647884784E0;4.750096321E0;7.072471619E0;-1.867477298E0;8.721854236E0
2.657856531E0;8.825027466E0;1.290953541E1;9.576807022E-1;1.566698333E1
2.667833405E0;8.413225174E0;2.001552582E1;6.861782074E0;2.277032465E1
2.677853342E0;9.816226959E0;2.587653160E1;2.370259762E0;2.777717284E1
2.687831810E0;9.955090523E0;3.167049980E1;-6.086060524E0;3.375151134E1
2.697841544E0;8.504204750E0;3.447171783E1;-9.083600998E0;3.664877400E1
2.708217411E0;1.176510715E1;3.158430862E1;3.303998411E-1;3.370601522E1
2.718014845E0;1.092713642E1;2.982217598E1;1.335964561E0;3.178913795E1
2.727927562E0;2.260126352E0;2.544557571E1;-2.308010340E0;2.564980324E1
2.737871420E0;1.359906554E0;2.305137444E1;-1.431732655E0;2.313579624E1
2.747849849E0;4.141968727E0;1.917276764E1;-4.917690277E0;2.022213148E1
2.757876564E0;4.386177540E0;1.566286755E1;-8.676587105E0;1.843494337E1
2.767899921E0;4.031835556E0;1.343147182E1;-4.381389141E0;1.469206262E1
2.777920600E0;3.955221176E0;1.252646351E1;-1.125274777E0;1.318416876E1
2.787881439E0;2.772485495E0;1.246900272E1;-3.495534360E-1;1.277829771E1
2.797846859E0;1.465251446E0;1.248815632E1;-1.063025594E0;1.261867796E1
2.807834569E0;1.369483352E0;1.278024864E1;-5.123591423E-1;1.286362126E1
2.817842924E0;1.987187386E0;1.352723980E1;6.224924326E-1;1.368658566E1
2.827836601E0;2.777273893E0;1.416409683E1;3.208230138E-1;1.443737569E1
2.837870440E0;3.739742994E0;1.443224812E1;-1.005564690E0;1.494277831E1
2.848844859E0;4.453215122E0;1.429817295E1;-2.509123325E0;1.518435295E1
2.858321569E0;4.592078686E0;1.376665974E1;-2.461239338E0;1.471957221E1
2.868120924E0;4.510675907E0;1.297178459E1;-1.872265697E0;1.386069159E1
2.877963601E0;3.945644379E0;1.193748951E1;-1.154005170E0;1.262550962E1
2.887885940E0;3.533841610E0;1.079784966E1;-5.937620401E-1;1.137691290E1
2.897869109E0;3.035847664E0;9.725247383E0;-1.771709323E-1;1.018961222E1
2.907855194E0;2.528276920E0;9.021351814E0;2.011129409E-1;9.371094875E0
2.917844736E0;2.308010340E0;8.542511940E0;6.320692301E-1;8.871354659E0
2.927842507E0;2.298433542E0;8.293514252E0;5.650315881E-1;8.624641215E0
2.937848393E0;2.389413357E0;7.987056732E0;1.292868853E-1;8.337810656E0
2.947832836E0;2.810792685E0;7.671022415E0;-4.979939461E-1;8.184933621E0
2.957824057E0;2.264914751E0;7.326257229E0;-7.565677166E-1;7.705600465E0
2.967838168E0;1.857900500E0;6.919242859E0;-1.091755986E0;7.247044028E0
2.977884723E0;1.786074519E0;6.636727333E0;-1.201889277E0;6.977159144E0
2.987866501E0;1.546654344E0;6.464344501E0;-9.911994934E-1;6.720295077E0
2.997835390E0;1.149216771E0;6.373364925E0;-6.177040339E-1;6.505539019E0
3.007826834E0;9.720458984E-1;6.354211330E0;-1.771709323E-1;6.430572634E0
3.017810056E0;8.523358107E-1;6.473921299E0;1.867477298E-1;6.532458039E0
3.027822667E0;1.130063176E0;6.603208065E0;3.447650373E-1;6.708074423E0
3.037861973E0;1.450886250E0;6.641515732E0;3.830722570E-1;6.808931376E0
3.047826626E0;1.522712231E0;6.698976517E0;1.819593310E-1;6.872266592E0
3.057996452E0;1.398213744E0;6.933608055E0;-1.292868853E-1;7.074364808E0
3.067943365E0;1.498770237E0;7.465120792E0;-5.746084079E-2;7.614305117E0
3.078037822E0;1.738190413E0;7.920019150E0;-7.661445439E-2;8.108876557E0
3.087920550E0;2.025494576E0;8.303091049E0;-1.149216816E-1;8.547347907E0
3.097861914E0;2.293645144E0;8.633491516E0;1.915361360E-2;8.932992257E0
3.108013096E0;2.384624958E0;9.035717010E0;6.703764945E-2;9.345325684E0
3.117902687E0;2.379836559E0;9.370905876E0;3.830722719E-2;9.668452122E0
3.127857483E0;2.389413357E0;9.792284966E0;4.932055473E-1;1.009164965E1
3.137841381E0;2.537853718E0;1.032379818E1;7.709329724E-1;1.065907351E1
3.147927330E0;2.475604534E0;1.040520096E1;8.379706144E-1;1.072842111E1
3.157858304E0;2.413355350E0;1.033816338E1;6.320692301E-1;1.063491502E1
3.167820291E0;2.121262789E0;1.006043530E1;3.543418646E-1;1.028774379E1
3.177803785E0;2.011129379E0;9.730035782E0;1.771709323E-1;9.937284701E0
3.187888532E0;2.039859772E0;9.356540680E0;1.053448766E-1;9.576898189E0
3.197896905E0;1.929726601E0;9.093177795E0;6.703764945E-2;9.295924979E0
3.207859092E0;1.958456993E0;8.973467827E0;1.436521020E-2;9.184709304E0
3.217829685E0;2.087743998E0;8.877699852E0;-9.576806426E-2;9.120383829E0
3.227826982E0;2.121262789E0;8.939949036E0;-4.022258818E-1;9.196968535E0
3.237834630E0;2.035071373E0;9.136273384E0;-5.602431893E-1;9.376933362E0
3.247823954E0;2.025494576E0;9.294290543E0;-4.213795066E-1;9.521765889E0
3.257851116E0;1.963245392E0;9.466673851E0;-6.224924326E-2;9.668304983E0
3.267808697E0;2.049436569E0;9.524134636E0;4.405331016E-1;9.752097222E0
3.277875988E0;2.030282974E0;9.466673851E0;7.278373241E-1;9.709258979E0
3.287844133E0;2.035071373E0;9.356540680E0;9.433154464E-1;9.621653341E0
3.297836706E0;1.948880196E0;9.222464561E0;9.959878922E-1;9.478606358E0
3.307831492E0;1.891419291E0;9.093177795E0;9.097966552E-1;9.332260139E0
3.317819385E0;1.900996208E0;9.093177795E0;6.847416759E-1;9.314963240E0
3.327823832E0;1.900996208E0;9.136273384E0;4.932055473E-1;9.344973496E0
3.337821555E0;1.843535304E0;9.380482674E0;4.932055473E-1;9.572634398E0
3.347802417E0;1.996764183E0;9.677363396E0;6.607996821E-1;9.903286612E0
3.357816848E0;2.135627985E0;9.701305389E0;8.379706144E-1;9.968872950E0
3.368003063E0;2.499546528E0;9.648633003E0;4.596867263E-1;9.977733388E0
3.377905171E0;2.738966703E0;9.557653427E0;-1.053448766E-1;9.942925886E0
3.387849725E0;2.336740971E0;9.217676163E0;-5.698199868E-1;9.526311302E0
3.397839002E0;2.245761156E0;9.299078941E0;-9.241618514E-1;9.610951433E0
3.408156640E0;2.197877169E0;9.380482674E0;-1.039083481E0;9.690398017E0
3.417975959E0;2.121262789E0;9.433155060E0;-8.619126081E-1;9.707062560E0
3.427905119E0;1.814804912E0;9.452308655E0;-5.602431893E-1;9.641241010E0
3.437908199E0;1.527500629E0;9.495404243E0;-1.628057212E-1;9.618859892E0
3.447919239E0;1.221042871E0;9.572018623E0;3.782838583E-1;9.656996681E0
3.457856759E0;9.050082564E-1;9.629479408E0;6.464344859E-1;9.693492207E0
3.467813019E0;7.230489254E-1;9.538499832E0;7.661445141E-1;9.596497080E0
3.477814649E0;8.523358107E-1;9.476250648E0;8.475474119E-1;9.552179819E0
3.487846464E0;1.110909581E0;9.380482674E0;8.236053586E-1;9.481872235E0
3.497831371E0;1.537077546E0;9.294290543E0;8.092401624E-1;9.455226793E0
3.507822825E0;2.078166962E0;9.227252960E0;7.757213712E-1;9.490137974E0
3.517807052E0;2.566584110E0;9.179368973E0;4.836287498E-1;9.543692446E0
3.527803165E0;2.944868088E0;9.184157372E0;3.830722719E-2;9.644815297E0
3.537831722E0;2.662352324E0;9.155426979E0;-8.140286058E-2;9.535019113E0
3.547830000E0;2.245761156E0;9.294290543E0;2.873041928E-1;9.566076707E0
3.557824139E0;2.001552582E0;9.840168953E0;8.283938169E-1;1.007578156E1
3.567861209E0;2.336740971E0;9.763554573E0;6.129156351E-1;1.005798299E1
3.577836244E0;1.991975784E0;8.767566681E0;7.134721279E-1;9.019270231E0
3.587815261E0;1.450886250E0;9.452308655E0;1.240196466E0;9.643095825E0
3.597890770E0;8.044517636E-1;9.806650162E0;1.335964561E0;9.929870661E0
3.607854024E0;4.405331016E-1;9.749189377E0;1.254561663E0;9.839445507E0
3.617823651E0;4.836287498E-1;9.576807022E0;1.211466074E0;9.665235618E0
3.627968465E0;7.661445141E-1;9.394847870E0;9.959878922E-1;9.478509155E0
3.637887372E0;9.050082564E-1;9.356540680E0;7.182605267E-1;9.427607948E0
3.647887325E0;9.289502501E-1;9.361329079E0;4.548983276E-1;9.418299378E0
3.657869302E0;6.991068721E-1;9.466673851E0;2.729389966E-1;9.496376147E0
3.667830290E0;3.495534360E-1;9.500192642E0;1.484405100E-1;9.507780100E0
3.677819284E0;2.394201756E-1;9.481039047E0;1.771709323E-1;9.485716261E0
3.687867781E0;2.011129409E-1;9.442731857E0;1.244984865E-1;9.445693792E0
3.697861030E0;6.224924326E-2;9.500192642E0;1.580173075E-1;9.501710618E0
3.707917154E0;-5.267243832E-2;9.634267807E0;9.576806426E-2;9.634887757E0
3.717866716E0;-7.661445439E-2;9.797073364E0;9.576806799E-3;9.797377608E0
3.727845997E0;4.309562966E-2;9.758766174E0;-1.675941199E-1;9.760300316E0
3.737847638E0;1.292868853E-1;9.452308655E0;-3.974374831E-1;9.461543772E0
3.747931458E0;1.915361285E-1;9.193734169E0;-5.793967843E-1;9.213964114E0
3.757872368E0;1.484405100E-1;8.968679428E0;-6.512228847E-1;8.993516360E0
3.767847323E0;5.746084079E-2;8.638279915E0;-6.464344859E-1;8.662624266E0
3.777852801E0;-3.447650373E-1;8.576030731E0;-4.740519226E-1;8.596039277E0
3.787889540E0;-6.799532771E-1;8.638279915E0;-2.968810201E-1;8.670083892E0
3.797859909E0;-8.427590132E-1;8.418013573E0;-1.101332754E-1;8.460811108E0
3.807850094E0;-9.720458984E-1;8.197746277E0;-2.394201607E-2;8.255209899E0
3.817885186E0;-9.337386489E-1;7.905653954E0;9.576807022E-1;8.018003781E0
3.827859232E0;-1.163581967E0;7.771578789E0;6.813898087E0;1.040098875E1
3.837816255E0;-1.335964561E0;8.073247910E0;7.661445618E0;1.120981187E1
3.847792267E0;1.915361285E-1;8.255207062E0;7.939172745E0;1.145493752E1
3.857826273E0;9.959878922E-1;8.106766701E0;7.857769966E0;1.133385226E1
3.867817776E0;1.340752959E0;8.025363922E0;7.637503624E0;1.115954955E1
3.877809527E0;1.489193439E0;8.355764389E0;8.432378769E0;1.196417600E1
3.887814403E0;1.575384736E0;8.825027466E0;8.705317497E0;1.249581928E1
3.897806841E0;1.824381709E0;8.906430244E0;8.623914719E0;1.253095261E1
3.907809060E0;1.532289028E0;8.805873871E0;7.800309181E0;1.186322670E1
3.917804169E0;9.959878922E-1;8.705317497E0;7.177816868E0;1.132676475E1
3.927792224E0;7.661445439E-2;8.475474358E0;6.430825710E0;1.063931646E1
3.937889751E0;-1.120486379E0;8.288725853E0;5.837063789E0;1.019949899E1
3.947940515E0;-2.121262789E0;8.183381081E0;5.367800236E0;1.001402822E1
3.957953897E0;-2.647987127E0;8.293514252E0;5.008669853E0;1.004395282E1
3.967900088E0;-2.820369720E0;8.149862289E0;4.606443882E0;9.777221790E0
3.977850683E0;-2.858676910E0;7.814674377E0;4.869806290E0;9.641378667E0
3.987865481E0;-2.494758129E0;7.465120792E0;5.185841084E0;9.425751658E0
3.997896380E0;-1.709460020E0;7.249642849E0;5.300762653E0;9.142081804E0
4.007887829E0;-9.050082564E-1;7.129932880E0;5.257667065E0;8.904945019E0
4.017850554E0;-2.202665508E-1;6.986280441E0;5.181052685E0;8.700571170E0
4.027851916E0;2.489969730E-1;6.895300865E0;5.444414616E0;8.789131016E0
4.037853597E0;7.996633649E-1;6.885724068E0;5.951985359E0;9.136672652E0
4.047864938E0;1.431732655E0;6.809109688E0;6.660669327E0;9.632151837E0
4.057847608E0;2.006340981E0;6.675034523E0;7.690176010E0;1.037883891E1
4.068241443E0;2.245761156E0;6.531382084E0;8.695740700E0;1.110487737E1
4.078038861E0;2.073378563E0;6.363788128E0;9.442731857E0;1.157419038E1
4.087924570E0;1.905784607E0;6.224924564E0;9.758766174E0;1.173095128E1
4.097875924E0;1.733402014E0;6.071695328E0;9.792284966E0;1.165156691E1
4.107862601E0;1.173158884E0;5.961562157E0;9.562441826E0;1.132946684E1
4.117876440E0;1.723825186E-1;5.937620163E0;9.428366661E0;1.114356975E1
4.127847359E0;-4.644751251E-1;5.985504150E0;8.949525833E0;1.077664186E1
4.137828319E0;-5.554547906E-1;5.990292549E0;8.169015884E0;1.014519371E1
4.147850299E0;-1.819593310E-1;6.028599739E0;7.632715225E0;9.728076157E0
4.157847289E0;3.974374831E-1;6.325480938E0;7.426813602E0;9.763566251E0
4.167877284E0;1.005564690E0;6.665457726E0;7.254431248E0;9.902840995E0
4.177986281E0;1.307234168E0;6.866570473E0;7.058106422E0;9.933555129E0
4.187894280E0;1.398213744E0;6.904877663E0;6.847416878E0;9.824431541E0
4.197851779E0;1.034295082E0;6.794744492E0;6.675034523E0;9.580939667E0
4.208942529E0;5.363011956E-1;6.574477673E0;6.564900875E0;9.306411722E0
4.218444404E0;5.315127969E-1;6.493074894E0;6.603208065E0;9.276038173E0
4.228132341E0;7.469909191E-1;6.349422932E0;7.034164429E0;9.505400371E0
4.237980810E0;9.864110947E-1;6.148310184E0;7.575253963E0;9.806079624E0
4.247915044E0;1.182735682E0;6.038176537E0;8.001421928E0;1.009362137E1
4.257872161E0;1.115697980E0;5.913678169E0;8.183381081E0;1.015795734E1
4.267851720E0;6.943184733E-1;5.616796970E0;7.886500359E0;9.707078564E0
4.277827499E0;1.628057212E-1;5.382165432E0;7.445967197E0;9.188941068E0
4.288005389E0;-1.053448766E-1;5.176264286E0;7.196970463E0;8.865731405E0
4.297911334E0;-2.681505978E-1;4.984727859E0;6.986280441E0;8.586473722E0
4.307901806E0;-3.639186621E-1;4.793191910E0;6.651092529E0;8.206348598E0
4.317871042E0;-1.963245422E-1;4.668693542E0;6.378153324E0;7.906711234E0
4.327844660E0;3.112462163E-1;4.563348293E0;6.076483727E0;7.605568771E0
4.337849469E0;1.211466074E0;4.529829502E0;5.770026207E0;7.435066092E0
4.347845374E0;1.503558636E0;4.458003521E0;5.592854977E0;7.308523158E0
4.357838326E0;1.273715258E0;4.443638325E0;5.937620163E0;7.524865801E0
4.367854302E0;1.034295082E0;4.505887508E0;5.999869347E0;7.574379231E0
4.377834790E0;8.236053586E-1;4.319139957E0;6.143521786E0;7.554876286E0
4.387825534E0;1.527500629E0;3.921702385E0;8.599972725E0;9.574577726E0
4.397831406E0;3.160346270E0;3.361459255E0;1.684081459E1;1.746139264E1
4.407844842E0;4.070142806E-1;3.452438831E0;1.127190113E1;1.179579373E1
4.417877060E0;9.002198577E-1;3.835511208E0;9.821015358E0;1.058177134E1
4.427867669E0;1.460463047E0;3.744531393E0;8.743624687E0;9.623172052E0
4.437899474E0;1.364694953E0;3.811569214E0;8.327033043E0;9.259045927E0
4.447903876E0;1.206677675E0;3.816357613E0;8.283937454E0;9.200232398E0
4.457933077E0;8.667010069E-1;3.869029999E0;8.178592682E0;9.089001157E0
4.467890678E0;7.422025204E-1;4.027047157E0;7.915230751E0;8.911725491E0
4.477848478E0;8.188169599E-1;3.955221176E0;7.594407558E0;8.601701107E0
4.487811378E0;2.442085743E-1;4.041412354E0;7.201758862E0;8.261838920E0
4.497813828E0;-3.160346150E-1;4.453215122E0;5.798756599E0;7.318236188E0
4.507819053E0;2.968810201E-1;4.319139957E0;7.149086475E0;8.357783543E0
4.517958666E0;6.703764796E-1;4.180276394E0;7.599195957E0;8.698959395E0
4.527894472E0;8.906430602E-1;4.209006786E0;8.408436775E0;9.445146489E0
4.537856875E0;9.959878922E-1;4.328716755E0;8.844181061E0;9.896934842E0
4.547864077E0;1.244984865E0;4.376600742E0;8.834604263E0;9.937547678E0
4.557859678E0;1.498770237E0;4.419696331E0;8.595184326E0;9.780450986E0
4.567868978E0;1.048660398E0;4.453215122E0;8.571242332E0;9.715812301E0
4.577853128E0;9.337386489E-1;4.333505154E0;8.863334656E0;9.910087588E0
4.587897703E0;1.086967587E0;4.098873138E0;9.528923035E0;1.042989136E1
4.597865491E0;1.312022567E0;3.864241600E0;9.567230225E0;1.040123361E1
4.610519885E0;1.532289028E0;3.720589399E0;9.868899345E0;1.065766717E1
4.619622082E0;1.465251446E0;3.615244627E0;1.050575733E1;1.120660040E1
4.629309680E0;1.575384736E0;3.572149038E0;1.091755962E1;1.159461918E1
4.638569979E0;1.517923832E0;3.529053211E0;1.060152531E1;1.127610962E1
4.648219629E0;1.283292055E0;3.615244627E0;9.528923035E0;1.027215685E1
4.659306954E0;1.000776291E0;3.696647406E0;8.815450668E0;9.611395617E0
4.668586616E0;8.044517636E-1;3.787626982E0;8.303091049E0;9.161581837E0
4.678212447E0;6.512228847E-1;3.687070608E0;7.982268333E0;8.816756130E0
4.688020363E0;6.129156351E-1;3.610456228E0;7.809885979E0;8.625855248E0
4.697935321E0;9.337386489E-1;3.663128614E0;7.910442352E0;8.767295895E0
4.707906800E0;9.768342972E-1;3.538630009E0;8.087613106E0;8.881756208E0
4.718097539E0;8.331822157E-1;3.347094059E0;8.389283180E0;9.070683741E0
4.728051409E0;7.374141216E-1;3.232172251E0;8.671798706E0;9.283900573E0
4.737969344E0;1.197100878E-1;2.801215887E0;8.403648376E0;8.859031944E0
4.747891311E0;3.878606856E-1;3.337517262E0;7.714118004E0;8.414099712E0
4.757899295E0;5.889736414E-1;3.529053211E0;7.465120792E0;8.278232599E0
4.767868287E0;6.224924326E-1;3.481169224E0;8.058882713E0;8.800660576E0
4.777861283E0;6.081272364E-1;3.371036053E0;8.552088737E0;9.212595974E0
4.787859781E0;6.943184733E-1;3.251325846E0;8.489839554E0;9.117596917E0
4.797847530E0;7.805097699E-1;3.213018656E0;8.461109161E0;9.084219979E0
4.807841904E0;7.230489254E-1;3.174711466E0;8.920795441E0;9.496430063E0
4.817848091E0;7.852981687E-1;2.949656487E0;9.806650162E0;1.027071341E1
4.828513185E0;9.145850539E-1;2.547430515E0;1.037168217E1;1.071903256E1
4.838169732E0;1.024718285E0;2.212242365E0;1.042435455E1;1.070566353E1
4.848038505E0;1.268926859E0;2.126051188E0;9.931148529E0;1.023513459E1
4.857978892E0;1.192312479E0;2.236184359E0;9.557653427E0;9.887915279E0
4.867918085E0;1.144428372E0;2.269703150E0;9.720458984E0;1.004731763E1
4.877943682E0;1.053448796E0;2.346317768E0;9.648633003E0;9.985543564E0
4.887916480E0;1.034295082E0;2.327163935E0;9.686940193E0;1.001610047E1
4.897866379E0;1.235408068E0;2.159569979E0;9.979032516E0;1.028450609E1
4.907848829E0;1.115697980E0;1.996764183E0;9.710882187E0;9.976626786E0
4.917919054E0;7.996633649E-1;2.149993181E0;8.944737434E0;9.234189729E0
4.927904166E0;7.565677166E-1;2.427720547E0;8.513781548E0;8.885420530E0
4.937917722E0;8.475474119E-1;2.537853718E0;8.552088737E0;8.960873835E0
4.947887000E0;8.762778044E-1;2.470816135E0;8.762778282E0;9.146533682E0
4.958124139E0;8.619126081E-1;2.461239338E0;8.796297073E0;9.174717141E0
4.968013209E0;7.948749661E-1;2.470816135E0;8.657433510E0;9.038136620E0
4.977921244E0;6.512228847E-1;2.461239338E0;8.604761124E0;8.973500115E0
4.987868761E0;5.841852427E-1;2.499546528E0;8.523358345E0;8.901496656E0
4.997873020E0;6.991068721E-1;2.561795712E0;8.480262756E0;8.886304299E0
5.007845149E0;8.810662031E-1;2.614468336E0;8.532935143E0;8.967870677E0
5.017826714E0;1.120486379E0;2.772485495E0;8.465897560E0;8.978506949E0
5.027829496E0;1.326387763E0;2.868253708E0;8.360552788E0;8.937842399E0
5.037882887E0;1.345541358E0;2.853888512E0;8.298302650E0;8.877893222E0
5.048012583E0;1.307234168E0;2.815581083E0;8.379706383E0;8.936209323E0
5.057936431E0;1.206677675E0;2.767697096E0;8.585607529E0;9.101037021E0
5.067880355E0;7.948749661E-1;2.580949545E0;9.313444138E0;9.697080410E0
5.077940817E0;5.219359994E-1;2.346317768E0;9.672574997E0;9.966761326E0
5.087890048E0;4.070142806E-1;2.236184359E0;9.203310966E0;9.479826679E0
5.098059163E0;3.926490843E-1;2.264914751E0;8.767566681E0;9.063897486E0
5.107951721E0;-8.762778044E-1;2.475604534E0;8.628703117E0;9.019478815E0
5.117955000E0;1.675941199E-1;2.370259762E0;8.935160637E0;9.245718725E0
5.127881639E0;8.188169599E-1;2.403778553E0;9.093177795E0;9.441106660E0
5.137902959E0;9.816226959E-1;2.499546528E0;9.241618156E0;9.623867316E0
5.147856119E0;9.002198577E-1;2.552218914E0;9.303867340E0;9.689487327E0
5.157833199E0;8.044517636E-1;2.585737944E0;9.198522568E0;9.588847730E0
5.167839239E0;7.374141216E-1;2.580949545E0;9.078812599E0;9.467307872E0
5.177833259E0;7.805097699E-1;2.652775526E0;9.097966194E0;9.508911734E0
5.187858769E0;7.422025204E-1;2.710236311E0;9.169792175E0;9.590689964E0
5.197881524E0;8.619126081E-1;2.801215887E0;9.102754593E0;9.562941230E0
5.207863901E0;9.528923035E-1;2.858676910E0;8.949525833E0;9.443201261E0
5.217826090E0;1.072602391E0;2.810792685E0;8.753201485E0;9.255785630E0
5.227829184E0;8.714894056E-1;2.806004286E0;8.504204750E0;8.997480329E0
5.237825231E0;4.836287498E-1;2.748543501E0;8.456320763E0;8.904928354E0
5.247889755E0;5.123591423E-1;2.604891539E0;8.576030731E0;8.977542811E0
5.257864017E0;6.177040339E-1;2.489969730E0;8.762778282E0;9.130596407E0
5.267868648E0;5.650315881E-1;2.504334927E0;8.973467827E0;9.333492324E0
5.279233463E0;4.261679053E-1;2.537853718E0;9.074024200E0;9.431873396E0
5.288527871E0;3.160346150E-1;2.533065319E0;9.026140213E0;9.380165507E0
5.298198075E0;2.537853718E-1;2.499546528E0;8.963891029E0;9.309322330E0
5.308027677E0;3.256114423E-1;2.470816135E0;8.901641846E0;9.243926803E0
5.317937478E0;4.309563041E-1;2.470816135E0;8.916007042E0;9.262064418E0
5.330033378E0;3.734954596E-1;2.518700123E0;8.801085472E0;9.162011496E0
5.347907279E0;2.250549644E-1;2.566584110E0;8.695740700E0;9.069394139E0
5.357798279E0;3.591302633E-1;2.585737944E0;8.892065048E0;9.267353240E0
5.367818279E0;4.644751251E-1;2.537853718E0;9.131484985E0;9.488964995E0
5.377822279E0;3.926490843E-1;2.509123325E0;9.198522568E0;9.542677328E0
5.387814279E0;2.585737705E-1;2.456450939E0;9.155426979E0;9.482766199E0
5.397828279E0;2.920926213E-1;2.451662540E0;9.289502144E0;9.612014221E0
5.407814279E0;4.692635238E-1;2.480392933E0;9.447520256E0;9.778967039E0
5.417865279E0;7.038952708E-1;2.499546528E0;9.481039047E0;9.830223945E0
5.427838279E0;8.379706144E-1;2.509123325E0;9.586383820E0;9.944679449E0
5.437870279E0;8.283938169E-1;2.542642117E0;9.643844604E0;1.000774720E1
5.447919279E0;7.709329724E-1;2.604891539E0;9.658209801E0;1.003298630E1
5.457959279E0;6.895300746E-1;2.657563925E0;9.495404243E0;9.884371476E0
5.467834279E0;5.602431893E-1;2.657563925E0;9.303867340E0;9.692185818E0
5.477863279E0;6.177040339E-1;2.595314741E0;9.121908188E0;9.504021563E0
5.487844279E0;7.182605267E-1;2.609679937E0;8.992621422E0;9.391143040E0
5.497824279E0;7.134721279E-1;2.537853718E0;8.935160637E0;9.315945447E0
5.507859279E0;7.374141216E-1;2.489969730E0;8.896853447E0;9.268102832E0
5.517854279E0;7.948749661E-1;2.446874142E0;8.963891029E0;9.325790136E0
5.527836279E0;7.900865674E-1;2.470816135E0;8.959102631E0;9.327094355E0
5.537832279E0;6.895300746E-1;2.499546528E0;8.935160637E0;9.303777737E0
5.547843279E0;4.788403511E-1;2.437297344E0;8.901641846E0;9.241695406E0
5.557806279E0;4.596867263E-1;2.398990154E0;8.944737434E0;9.272259348E0
5.567826279E0;4.213795066E-1;2.408566952E0;8.834604263E0;9.166732675E0
5.577781279E0;3.447650373E-1;2.475604534E0;8.748413086E0;9.098473073E0
5.588179279E0;3.926490843E-1;2.442085743E0;8.848969460E0;9.188156321E0
5.597895279E0;4.501099288E-1;2.408566952E0;9.006986618E0;9.334323845E0
5.607805279E0;4.405331016E-1;2.394201756E0;9.150638580E0;9.468920629E0
5.617813279E0;3.782838583E-1;2.470816135E0;9.198522568E0;9.532095703E0
5.627828279E0;5.123591423E-1;2.542642117E0;9.155426979E0;9.515744006E0
5.637869279E0;7.038952708E-1;2.571372509E0;9.150638580E0;9.531086589E0
5.647926279E0;7.661445141E-1;2.513911724E0;9.246406555E0;9.612635630E0
5.657811279E0;6.703764796E-1;2.446874142E0;9.394847870E0;9.731380384E0
5.667857279E0;6.129156351E-1;2.446874142E0;9.418789864E0;9.750715929E0
5.677826279E0;5.458779931E-1;2.456450939E0;9.437943459E0;9.767646120E0
5.687782279E0;5.123591423E-1;2.513911724E0;9.318233490E0;9.664974879E0
5.697801279E0;5.075707436E-1;2.509123325E0;9.121908188E0;9.474309310E0
5.707807279E0;5.458779931E-1;2.518700123E0;8.987833023E0;9.350025430E0
5.717874279E0;4.740519226E-1;2.566584110E0;8.987833023E0;9.359125048E0
5.728021279E0;4.118026793E-1;2.518700123E0;9.141061783E0;9.490650256E0
5.737980279E0;4.309563041E-1;2.394201756E0;9.299078941E0;9.612013033E0
5.747836279E0;3.256114423E-1;2.327163935E0;9.284713745E0;9.577453948E0
5.757820279E0;2.298433632E-1;2.370259762E0;9.112331390E0;9.418361995E0
5.767799279E0;1.675941199E-1;2.403778553E0;8.815450668E0;9.138840715E0
5.777884279E0;2.250549644E-1;2.456450939E0;8.647856712E0;8.992787481E0
5.787837279E0;3.160346150E-1;2.470816135E0;8.710105896E0;9.059291086E0
5.797803279E0;4.548983276E-1;2.513911724E0;9.002198219E0;9.357684405E0
5.807950279E0;5.602431893E-1;2.533065319E0;9.174580574E0;9.534318070E0
5.817856279E0;5.171475410E-1;2.542642117E0;9.179368973E0;9.539040059E0
5.827825279E0;4.884171486E-1;2.523488522E0;9.203310966E0;9.555494669E0
5.837806279E0;4.740519226E-1;2.547430515E0;9.155426979E0;9.515039181E0
5.847858279E0;5.363011956E-1;2.643198729E0;9.126696587E0;9.516864456E0
5.857859279E0;6.560112834E-1;2.662352324E0;9.078812599E0;9.483844627E0
5.867907279E0;6.655880809E-1;2.624045134E0;9.074024200E0;9.469241551E0
5.877848279E0;6.033388376E-1;2.571372509E0;9.131484985E0;9.505787309E0
5.887803279E0;5.841852427E-1;2.504334927E0;9.294290543E0;9.643484978E0
5.897831279E0;4.932055473E-1;2.470816135E0;9.385271072E0;9.717587004E0
5.909003279E0;4.548983276E-1;2.461239338E0;9.303867340E0;9.634655108E0
5.917977279E0;4.884171486E-1;2.437297344E0;9.141061783E0;9.473013257E0
5.927808279E0;4.884171486E-1;2.398990154E0;9.016563416E0;9.343025254E0
5.937840279E0;4.309563041E-1;2.432508945E0;9.064447403E0;9.395053477E0
5.947825279E0;3.639186621E-1;2.461239338E0;9.035717010E0;9.371996466E0
5.957846279E0;3.974374831E-1;2.485181332E0;9.121908188E0;9.462731730E0
5.967877279E0;4.692635238E-1;2.537853718E0;9.169792175E0;9.526069404E0
5.977868279E0;5.602431893E-1;2.533065319E0;9.107542992E0;9.469827437E0
5.987829279E0;5.315127969E-1;2.533065319E0;9.050082207E0;9.412912074E0
5.997826279E0;4.405331016E-1;2.509123325E0;8.944737434E0;9.300435315E0
6.007896279E0;3.639186621E-1;2.427720547E0;8.949525833E0;9.280101103E0
6.017888279E0;3.160346150E-1;2.437297344E0;9.054870605E0;9.382482502E0
6.027812279E0;3.208230138E-1;2.403778553E0;9.188945770E0;9.503567915E0
6.037893279E0;3.064578176E-1;2.375048161E0;9.212887764E0;9.519037300E0
6.047847279E0;3.734954596E-1;2.389413357E0;9.255983353E0;9.566714320E0
6.057885279E0;3.687070608E-1;2.427720547E0;9.160215378E0;9.483634204E0
6.068020279E0;3.974374831E-1;2.466027737E0;9.030928612E0;9.370001117E0
6.077824279E0;3.974374831E-1;2.451662540E0;9.040505409E0;9.375464992E0
6.087818279E0;3.495534360E-1;2.480392933E0;9.011775017E0;9.353428551E0
6.097870279E0;2.777273953E-1;2.432508945E0;9.011775017E0;9.338432482E0
6.107870279E0;3.687070608E-1;2.446874142E0;9.088389397E0;9.419233503E0
6.117813279E0;4.453215301E-1;2.456450939E0;9.203310966E0;9.535900337E0
6.127923279E0;5.698199868E-1;2.456450939E0;9.222464561E0;9.560998830E0
6.137878279E0;7.038952708E-1;2.528276920E0;9.188945770E0;9.556378870E0
6.147815279E0;8.140285611E-1;2.576161146E0;9.006986618E0;9.403459825E0
6.157923279E0;8.092401624E-1;2.590526342E0;8.968679428E0;9.370320542E0
6.167848279E0;7.374141216E-1;2.624045134E0;8.983044624E0;9.387464150E0
6.177807279E0;6.320692301E-1;2.600103140E0;9.011775017E0;9.400645552E0
6.187871279E0;5.698199868E-1;2.561795712E0;9.083600998E0;9.455120262E0
6.197835279E0;5.267243981E-1;2.528276920E0;9.112331390E0;9.471230445E0
6.207999279E0;5.267243981E-1;2.523488522E0;9.160215378E0;9.516037972E0
6.217889279E0;5.123591423E-1;2.499546528E0;9.255983353E0;9.601222451E0
6.227937279E0;3.495534360E-1;2.513911724E0;9.251194954E0;9.593046848E0
6.237850279E0;3.447650373E-1;2.437297344E0;9.126696587E0;9.452823486E0
6.247822279E0;3.351882398E-1;2.379836559E0;9.083600998E0;9.396157741E0
6.257809279E0;2.633621991E-1;2.360682964E0;9.188945770E0;9.490990890E0
6.267916279E0;2.489969730E-1;2.384624958E0;9.294290543E0;9.598555744E0
6.277817279E0;3.256114423E-1;2.384624958E0;9.222464561E0;9.531333149E0
6.287884279E0;3.926490843E-1;2.418143749E0;9.093177795E0;9.417402769E0
6.297931279E0;4.453215301E-1;2.461239338E0;8.877699852E0;9.223316378E0
6.307993279E0;5.123591423E-1;2.509123325E0;8.853757858E0;9.216682699E0
6.317839279E0;5.937620401E-1;2.557007313E0;8.868123055E0;9.248483458E0
6.327986279E0;7.182605267E-1;2.509123325E0;8.992621422E0;9.363697885E0
6.337799279E0;5.841852427E-1;2.513911724E0;9.112331390E0;9.470776522E0
6.347836279E0;4.979939461E-1;2.537853718E0;9.169792175E0;9.527527906E0
6.357958279E0;4.357447028E-1;2.561795712E0;9.150638580E0;9.512457997E0
6.367821279E0;5.363011956E-1;2.566584110E0;9.260771751E0;9.624804746E0
6.377859279E0;6.368576288E-1;2.590526342E0;9.337387085E0;9.710984087E0
6.387879279E0;6.847416759E-1;2.590526342E0;9.255983353E0;9.636022298E0
6.397822279E0;6.895300746E-1;2.561795712E0;9.169792175E0;9.545854468E0
6.408383279E0;4.979939461E-1;2.537853718E0;8.973467827E0;9.338727124E0
6.419291279E0;5.506663918E-1;2.466027737E0;9.112331390E0;9.456167809E0
6.427859279E0;1.723825186E-1;2.327163935E0;8.930372238E0;9.230219717E0
6.437859279E0;5.458779931E-1;2.178723574E0;9.169792175E0;9.440863717E0
6.447826279E0;7.709329724E-1;2.097320795E0;9.447520256E0;9.708178570E0
6.457833279E0;7.230489254E-1;2.178723574E0;9.528923035E0;9.801531021E0
6.468515279E0;5.363011956E-1;2.269703150E0;9.447520256E0;9.731125852E0
6.477786279E0;3.974374831E-1;2.351106167E0;9.208099365E0;9.511821628E0
6.487915279E0;4.453215301E-1;2.379836559E0;9.006986618E0;9.326721892E0
6.497931279E0;5.219359994E-1;2.418143749E0;9.002198219E0;9.335920370E0
6.507849279E0;5.937620401E-1;2.451662540E0;9.083600998E0;9.427354330E0
6.518031279E0;5.602431893E-1;2.442085743E0;9.136273384E0;9.473602618E0
6.527859279E0;7.805097699E-1;2.427720547E0;9.270348549E0;9.614696291E0
6.537863279E0;1.091755986E0;2.379836559E0;9.217676163E0;9.582333068E0
6.547867279E0;5.698199868E-1;2.624045134E0;9.021351814E0;9.412496812E0
6.557829279E0;3.399766386E-1;2.715024710E0;9.026140213E0;9.431762849E0
6.567942279E0;5.315127969E-1;2.580949545E0;8.839392662E0;9.223809898E0
6.577858279E0;5.841852427E-1;2.547430515E0;8.767566681E0;9.148819603E0
6.587812279E0;6.416460276E-1;2.537853718E0;8.801085472E0;9.182130287E0
6.597806279E0;6.272808313E-1;2.489969730E0;8.820239067E0;9.186405592E0
6.607847279E0;4.309563041E-1;2.442085743E0;8.825027466E0;9.166821471E0
6.617826279E0;3.256114423E-1;2.389413357E0;8.872911453E0;9.194774421E0
6.627813279E0;3.830722570E-1;2.336740971E0;9.275136948E0;9.572631201E0
6.637816279E0;4.261679053E-1;2.312798738E0;9.380482674E0;9.670786539E0
6.648016279E0;4.836287498E-1;2.413355350E0;9.370905876E0;9.688759351E0
6.657841279E0;4.644751251E-1;2.413355350E0;9.141061783E0;9.465676506E0
6.667827279E0;4.596867263E-1;2.437297344E0;9.102754593E0;9.434610294E0
6.677854279E0;4.740519226E-1;2.437297344E0;9.232041359E0;9.560111465E0
6.687835279E0;5.123591423E-1;2.446874142E0;9.409213066E0;9.735655883E0
6.697848279E0;6.943184733E-1;2.456450939E0;9.442731857E0;9.781687701E0
6.707830279E0;5.458779931E-1;2.542642117E0;9.313444138E0;9.669708032E0
6.717797279E0;4.501099288E-1;2.619256735E0;9.141061783E0;9.519564870E0
6.727893279E0;4.788403511E-1;2.609679937E0;9.064447403E0;9.444782908E0
6.737880279E0;5.123591423E-1;2.590526342E0;9.054870605E0;9.432074019E0
6.747877279E0;5.698199868E-1;2.576161146E0;9.026140213E0;9.403856029E0
6.757950279E0;4.979939461E-1;2.537853718E0;8.968679428E0;9.334126105E0
6.767824279E0;5.171475410E-1;2.533065319E0;8.916007042E0;9.283266831E0
6.777829279E0;5.267243981E-1;2.542642117E0;8.872911453E0;9.245054093E0
6.787859279E0;4.309563041E-1;2.547430515E0;8.877699852E0;9.246008881E0
6.797828279E0;3.591302633E-1;2.571372509E0;8.853757858E0;9.226589800E0
6.807808279E0;3.399766386E-1;2.533065319E0;9.069235802E0;9.422475368E0
6.817865279E0;4.261679053E-1;2.504334927E0;9.246406555E0;9.589022197E0
6.827876279E0;4.357447028E-1;2.480392933E0;9.279925346E0;9.615572629E0
6.837807279E0;3.160346150E-1;2.442085743E0;9.303867340E0;9.624219872E0
6.847832279E0;2.537853718E-1;2.389413357E0;9.270348549E0;9.576693867E0
6.857811279E0;2.681505978E-1;2.370259762E0;9.107542992E0;9.414742451E0
6.868961279E0;4.644751251E-1;2.437297344E0;9.131484985E0;9.462566963E0
6.877864279E0;6.847416759E-1;2.475604534E0;9.270348549E0;9.619607642E0
6.887803279E0;8.762778044E-1;2.475604534E0;9.107542992E0;9.478597995E0
6.897815279E0;7.565677166E-1;2.480392933E0;8.935160637E0;9.303861533E0
6.908837279E0;4.932055473E-1;2.489969730E0;8.844181061E0;9.201235765E0
6.917935279E0;4.357447028E-1;2.427720547E0;8.911218643E0;9.246270503E0
6.927778279E0;4.357447028E-1;2.403778553E0;8.987833023E0;9.313923299E0
6.937893279E0;3.351882398E-1;2.451662540E0;8.896853447E0;9.234554761E0
6.947825279E0;1.628057212E-1;2.489969730E0;8.686163902E0;9.037471898E0
6.957796279E0;2.442085743E-1;2.422932148E0;8.690952301E0;9.025679471E0
6.967949279E0;5.027823448E-1;2.461239338E0;8.949525833E0;9.295402186E0
6.977864279E0;6.272808313E-1;2.509123325E0;9.279925346E0;9.633597227E0
6.987814279E0;7.086837292E-1;2.542642117E0;9.562441826E0;9.920058227E0
6.997831279E0;8.810662031E-1;2.571372509E0;9.404424667E0;9.789353276E0
7.007930279E0;8.619126081E-1;2.537853718E0;9.193734169E0;9.576447296E0
7.017831279E0;5.698199868E-1;2.509123325E0;9.270348549E0;9.620798142E0
7.027908279E0;4.357447028E-1;2.499546528E0;9.423578262E0;9.759171766E0
7.037964279E0;4.788403511E-1;2.489969730E0;9.538499832E0;9.869762732E0
7.047789279E0;5.506663918E-1;2.437297344E0;9.447520256E0;9.772373857E0
7.057842279E0;4.261679053E-1;2.446874142E0;9.270348549E0;9.597300369E0
7.067819279E0;4.788403511E-1;2.437297344E0;9.212887764E0;9.541855552E0
7.078508279E0;4.453215301E-1;2.485181332E0;9.337387085E0;9.672705676E0
7.087871279E0;5.458779931E-1;2.480392933E0;9.232041359E0;9.575015381E0
7.097857279E0;5.458779931E-1;2.504334927E0;9.145850182E0;9.498223610E0
7.107985279E0;5.410895944E-1;2.504334927E0;9.011775017E0;9.368914576E0
7.117830279E0;6.081272364E-1;2.523488522E0;8.877699852E0;9.249398235E0
7.127791279E0;6.560112834E-1;2.485181332E0;9.040505409E0;9.398787960E0
7.137886279E0;5.937620401E-1;2.475604534E0;9.332598686E0;9.673601677E0
7.147863279E0;4.261679053E-1;2.432508945E0;9.433155060E0;9.751058057E0
7.159697279E0;2.442085743E-1;2.308010340E0;9.193734169E0;9.482156797E0
7.168829279E0;-1.005564705E-1;2.494758129E0;6.584054470E0;7.041569640E0
7.177790279E0;1.072602391E0;2.686294317E0;6.775590897E0;7.367176192E0
7.187986279E0;1.177947283E0;2.561795712E0;9.184157372E0;9.607242252E0
7.198945279E0;1.307234168E0;2.513911724E0;9.868899345E0;1.026760866E1
7.208090279E0;1.034295082E0;2.394201756E0;1.015620327E1;1.048572521E1
7.218779279E0;6.607996821E-1;2.308010340E0;9.959878922E0;1.024513329E1
7.227997279E0;6.033388376E-1;2.269703150E0;9.481039047E0;9.767582687E0
7.237846279E0;4.644751251E-1;2.264914751E0;9.519346237E0;9.796097629E0
7.247881279E0;4.836287498E-1;2.365471363E0;1.006043530E1;1.034609636E1
7.257805279E0;5.363011956E-1;2.489969730E0;1.033337498E1;1.064265975E1
7.268516279E0;6.512228847E-1;2.561795712E0;9.974244118E0;1.031854807E1
7.277806279E0;5.027823448E-1;2.643198729E0;9.725247383E0;1.009057611E1
7.287809279E0;-4.309562966E-2;2.791639090E0;9.002198219E0;9.425215054E0
7.297871279E0;-2.585737705E-1;2.786850691E0;7.934384346E0;8.413551695E0
7.307911279E0;2.585737705E-1;2.762908697E0;7.163451672E0;7.682158858E0
7.317812279E0;5.219359994E-1;2.715024710E0;7.287950039E0;7.794741313E0
7.327899279E0;5.841852427E-1;2.691082716E0;8.149862289E0;8.602526020E0
