"Time (s)";"Acceleration x (m/s^2)";"Acceleration y (m/s^2)";"Acceleration z (m/s^2)";"Absolute acceleration (m/s^2)"
0.000000000E0;1.675941229E0;6.435614109E0;6.761225700E0;9.483674443E0
1.344300500E-2;1.704671621E0;6.440402508E0;6.694188118E0;9.444408100E0
2.929625500E-2;1.589749932E0;6.421248913E0;6.512228489E0;9.282718478E0
4.220138000E-2;1.623268723E0;6.445190907E0;6.344634533E0;9.188573041E0
5.367444200E-2;1.441309452E0;6.517016888E0;6.162675381E0;9.084462004E0
6.437647300E-2;1.312022567E0;6.397306919E0;6.023811340E0;8.884438198E0
7.481198900E-2;1.163581967E0;6.287173748E0;6.148310184E0;8.870411200E0
8.492674700E-2;1.029506683E0;6.224924564E0;6.387730122E0;8.978455655E0
9.500062600E-2;1.187524080E0;6.076483727E0;6.502651691E0;8.978772017E0
1.050565650E-1;1.211466074E0;6.162675381E0;6.282385349E0;8.883388068E0
1.150525350E-1;1.369483352E0;6.277596951E0;6.440402508E0;9.097389328E0
1.250440200E-1;1.805228114E0;6.354211330E0;6.833051682E0;9.503969984E0
1.350952620E-1;1.991975784E0;6.564900875E0;6.924031258E0;9.747209851E0
1.451068830E-1;2.183511972E0;6.751648903E0;6.933608055E0;9.921058820E0
1.551786940E-1;2.437297344E0;6.952761650E0;6.569689274E0;9.871278036E0
1.651405990E-1;2.494758129E0;7.264008045E0;6.191405773E0;9.865248930E0
1.751940520E-1;2.245761156E0;7.402871609E0;6.200982571E0;9.914541647E0
1.851212780E-1;2.001552582E0;7.536946774E0;6.531382084E0;1.017205640E1
1.951708910E-1;1.417367458E0;7.503427982E0;6.780379295E0;1.021194915E1
2.052156980E-1;8.667010069E-1;7.110779285E0;6.732495308E0;9.830607598E0
2.152746010E-1;5.554547906E-1;6.785167694E0;6.531382084E0;9.434298203E0
2.252665530E-1;5.650315881E-1;6.636727333E0;6.387730122E0;9.228678480E0
2.352360290E-1;7.565677166E-1;6.550535679E0;6.224924564E0;9.068163994E0
2.453792670E-1;1.110909581E0;6.459556103E0;5.980715752E0;8.872933339E0
2.552398860E-1;1.656787634E0;6.517016888E0;5.817910194E0;8.891823964E0
2.651801950E-1;1.685518026E0;6.478709698E0;6.330269337E0;9.213411976E0
2.751928500E-1;1.675941229E0;6.670246124E0;6.756437302E0;9.641079160E0
2.853271770E-1;1.498770237E0;6.478709698E0;6.780379295E0;9.497027691E0
2.954913410E-1;7.278373241E-1;6.287173748E0;6.995857239E0;9.433998061E0
3.052824230E-1;4.788403213E-2;5.894524574E0;6.689399719E0;8.916040682E0
3.151779640E-1;1.149216816E-1;5.923254967E0;6.387730122E0;8.712132489E0
3.251532340E-1;4.788403399E-3;5.975927353E0;6.967126846E0;9.178920805E0
3.352388690E-1;1.292868853E-1;6.181828976E0;7.603984833E0;9.800628037E0
3.451606870E-1;-7.661445439E-2;6.277596951E0;7.580042362E0;9.842313522E0
3.551725960E-1;8.283938169E-1;6.919242859E0;6.976703644E0;9.860859587E0
3.651095500E-1;1.575384736E0;7.278373241E0;6.368576527E0;9.798740791E0
3.751705270E-1;1.556231141E0;7.302315235E0;5.951985359E0;9.548392162E0
3.852585160E-1;1.484405041E0;7.718906403E0;6.205770969E0;1.001481741E1
3.951765100E-1;1.187524080E0;7.910442352E0;6.540958881E0;1.033293060E1
4.051625070E-1;9.816226959E-1;7.704541206E0;7.062894821E0;1.049800084E1
4.153175060E-1;5.889736414E-1;6.785167694E0;7.163451672E0;9.884352808E0
4.253665050E-1;3.543418646E-1;6.464344501E0;7.455543995E0;9.874130050E0
4.355395050E-1;2.681505978E-1;6.775590897E0;7.690176010E0;1.025277249E1
4.453630050E-1;1.340752989E-1;7.307103634E0;7.704541206E0;1.061940181E1
4.553987550E-1;-4.022258818E-1;7.560888767E0;7.139509678E0;1.040679696E1
4.653371300E-1;2.231395960E0;6.861782074E0;6.718130112E0;9.858826165E0
4.753168170E-1;1.920149803E0;7.374141216E0;6.066906929E0;9.740240943E0
4.852311610E-1;1.589749932E0;7.785943985E0;4.955997467E0;9.365369159E0
4.952768330E-1;1.781286120E0;7.268796444E0;5.798756599E0;9.467521327E0
5.051771690E-1;1.575384736E0;7.374141216E0;5.348646641E0;9.244880563E0
5.151613370E-1;1.977610588E0;8.092401505E0;5.358223438E0;9.904971689E0
5.251759210E-1;2.078166962E0;7.417236805E0;5.755661011E0;9.615706600E0
5.351317130E-1;1.321599364E0;6.847416878E0;6.042964935E0;9.227739051E0
5.451451090E-1;1.249773264E0;8.279149055E0;5.310339451E0;9.914935571E0
5.550918070E-1;1.972822189E0;7.943961143E0;6.004657745E0;1.015157430E1
5.651041560E-1;1.814804912E0;7.311892033E0;7.235277653E0;1.044540687E1
5.751518300E-1;1.225831270E0;7.378929615E0;7.570465565E0;1.064251913E1
5.851601670E-1;1.517923832E0;8.667010307E0;7.283161640E0;1.142215408E1
5.952798360E-1;1.331176162E0;8.743624687E0;7.278373241E0;1.145415731E1
6.051901700E-1;7.948749661E-1;8.485051155E0;7.345410824E0;1.125091016E1
6.152238370E-1;-8.619125932E-2;8.336610794E0;6.488286495E0;1.056429695E1
6.251496710E-1;-4.405331016E-1;8.082824707E0;5.726930618E0;9.915838793E0
6.351865880E-1;1.915361360E-2;8.197746277E0;4.721365929E0;9.460164222E0
6.451815460E-1;4.405331016E-1;7.852981567E0;3.955221176E0;8.803815279E0
6.552520250E-1;7.613561153E-1;7.723694801E0;3.701435804E0;8.598590090E0
6.652507650E-1;1.125274777E0;7.455543995E0;4.094084740E0;8.579796585E0
6.752121350E-1;1.364694953E0;7.038952827E0;4.970362663E0;8.724319700E0
6.851648200E-1;1.292868972E0;7.350199223E0;5.535394192E0;9.291798946E0
6.951546620E-1;1.043871999E0;7.891288757E0;5.616796970E0;9.742202790E0
7.052155830E-1;6.991068721E-1;8.710105896E0;5.195417881E0;1.016597571E1
7.152505440E-1;9.241618514E-1;9.404424667E0;4.898536682E0;1.064391564E1
7.251595240E-1;1.723825216E0;9.236829758E0;5.267243862E0;1.077192904E1
7.352060140E-1;2.173935175E0;8.724471092E0;5.770026207E0;1.068342606E1
7.453732590E-1;2.351106167E0;8.576030731E0;5.760449409E0;1.059522443E1
7.552523820E-1;2.087743998E0;8.398859978E0;5.032611847E0;1.001132888E1
7.651804430E-1;1.436521053E0;8.259995461E0;4.390965939E0;9.464232648E0
7.751404740E-1;8.044517636E-1;8.140285492E0;3.830722809E0;9.032487352E0
7.851899890E-1;2.346317619E-1;8.307879448E0;3.366247654E0;8.967024939E0
7.952902470E-1;-1.915361285E-1;8.322244644E0;2.868253708E0;8.804732894E0
8.063663760E-1;-3.926490843E-1;8.647856712E0;1.335964561E0;8.759246562E0
8.158744400E-1;-3.256114423E-1;8.901641846E0;9.145850539E-1;8.954424391E0
8.256109720E-1;3.208230138E-1;9.069235802E0;3.208230138E-1;9.080577781E0
8.355062380E-1;1.010353088E0;9.160215378E0;2.537853718E-1;9.219260607E0
8.453208710E-1;1.441309452E0;9.327810287E0;1.149216816E-1;9.439206783E0
8.552131880E-1;1.829170108E0;9.203310966E0;-1.388636976E-1;9.384352890E0
8.651703460E-1;1.934514999E0;9.188945770E0;-5.267243981E-1;9.405132176E0
8.752119250E-1;1.757344007E0;9.251194954E0;-8.571242094E-1;9.455555401E0
8.851607150E-1;1.460463047E0;9.308655739E0;-1.024718285E0;9.478083748E0
8.952406100E-1;9.002198577E-1;9.485827446E0;-1.024718285E0;9.583390094E0
9.051845570E-1;4.932055473E-1;9.615114212E0;-1.192312479E0;9.701303112E0
9.152070310E-1;5.937620401E-1;9.706093788E0;-1.422155857E0;9.827682192E0
9.251307680E-1;9.576807022E-1;9.586383820E0;-1.288080573E0;9.719828117E0
9.351571360E-1;9.720458984E-1;9.457097054E0;-1.082179189E0;9.568315928E0
9.451968200E-1;9.097966552E-1;9.452308655E0;-6.368576288E-1;9.517324020E0
9.552156620E-1;8.092401624E-1;9.533711433E0;1.628057212E-1;9.569379762E0
9.651520830E-1;7.134721279E-1;9.605537415E0;1.125274777E0;9.697506629E0
9.751072940E-1;7.709329724E-1;9.662998199E0;1.757344007E0;9.851706949E0
9.850753990E-1;1.053448796E0;9.639056206E0;1.953668594E0;9.891308300E0
9.951094520E-1;1.182735682E0;9.643844604E0;1.805228114E0;9.882380836E0
1.005149478E0;1.110909581E0;9.615114212E0;1.561019540E0;9.804148276E0
1.015401491E0;9.672574997E-1;9.658209801E0;1.235408068E0;9.784826862E0
1.025278998E0;9.768342972E-1;9.658209801E0;1.067813993E0;9.766035456E0
1.035390751E0;1.005564690E0;9.672574997E0;8.331822157E-1;9.760330938E0
1.045262628E0;1.034295082E0;9.543288231E0;5.554547906E-1;9.615229930E0
1.055288066E0;9.002198577E-1;9.610325813E0;1.005564705E-1;9.652920265E0
1.065188285E0;7.134721279E-1;9.629479408E0;2.059013397E-1;9.658069761E0
1.075410895E0;7.565677166E-1;9.591172218E0;6.895300746E-1;9.645643107E0
1.085386700E0;9.145850539E-1;9.543288231E0;6.895300746E-1;9.611777557E0
1.095269102E0;1.096544385E0;9.533711433E0;3.782838583E-1;9.604018011E0
1.105305303E0;1.230619669E0;9.572018623E0;4.309562966E-2;9.650897499E0
1.115262404E0;1.364694953E0;9.615114212E0;1.628057212E-1;9.712843010E0
1.125148954E0;1.206677675E0;9.576807022E0;4.740519226E-1;9.664162094E0
1.135099229E0;1.000776291E0;9.600749016E0;6.655880809E-1;9.675688210E0
1.145093867E0;9.433154464E-1;9.643844604E0;9.337386489E-1;9.734754781E0
1.155312186E0;9.145850539E-1;9.595960617E0;1.163581967E0;9.709420630E0
1.165270345E0;8.092401624E-1;9.504981041E0;1.163581967E0;9.610070615E0
1.175194925E0;7.613561153E-1;9.524134636E0;1.029506683E0;9.609822460E0
1.185149715E0;8.427590132E-1;9.557653427E0;8.667010069E-1;9.633802594E0
1.195197110E0;1.086967587E0;9.600749016E0;5.410895944E-1;9.677223680E0
1.205227307E0;1.125274777E0;9.519346237E0;7.661445439E-2;9.585930622E0
1.215259406E0;1.067813993E0;9.504981041E0;-7.182604820E-2;9.565043141E0
1.225156455E0;9.864110947E-1;9.332598686E0;3.830722719E-2;9.384661556E0
1.235307980E0;9.528923035E-1;9.457097054E0;3.830722719E-2;9.505059488E0
1.245369242E0;8.762778044E-1;9.414001465E0;1.005564705E-1;9.455231249E0
1.255344873E0;9.193734527E-1;9.581595421E0;2.681505978E-1;9.629336587E0
1.265249189E0;9.241618514E-1;9.691728592E0;6.177040339E-1;9.755267116E0
1.275167847E0;1.091755986E0;9.667786598E0;7.661445141E-1;9.759354807E0
1.285159176E0;1.115697980E0;9.677363396E0;8.858546019E-1;9.781660526E0
1.295156340E0;1.321599364E0;9.672574997E0;8.714894056E-1;9.801266537E0
1.305181422E0;1.369483352E0;9.595960617E0;1.580173135E0;9.821145145E0
1.315140963E0;1.479616642E0;9.605537415E0;9.002198577E-1;9.760430842E0
1.325172234E0;1.671152830E0;9.409213066E0;-4.836287498E-1;9.568695787E0
1.335185369E0;1.120486379E0;9.188945770E0;-1.355118155E0;9.355669902E0
1.345162937E0;1.561019540E0;9.222464561E0;-1.192312479E0;9.429328907E0
1.355148721E0;1.790862918E0;9.232041359E0;-6.416460276E-1;9.426000598E0
1.365120113E0;1.335964561E0;9.069235802E0;-2.873041928E-1;9.171607440E0
1.375119309E0;1.077390790E0;9.050082207E0;-6.224924326E-2;9.114199572E0
1.385393907E0;1.101332784E0;9.078812599E0;-1.532289088E-1;9.146652459E0
1.395261706E0;1.264138460E0;8.920795441E0;-4.501099288E-1;9.021154931E0
1.405223605E0;1.268926859E0;8.810662270E0;-5.458779931E-1;8.918291753E0
1.415225555E0;1.163581967E0;8.580819130E0;-1.388636976E-1;8.660465522E0
1.425165530E0;9.911994934E-1;8.327033043E0;6.224924326E-2;8.386049767E0
1.435127517E0;1.048660398E0;8.149862289E0;-7.182604820E-2;8.217365937E0
1.445229511E0;1.201889277E0;8.125920296E0;-5.123591423E-1;8.230287381E0
1.455165008E0;1.608903527E0;8.034940720E0;-5.985504389E-1;8.216270782E0
1.465120256E0;1.508347034E0;7.920019150E0;-7.278373241E-1;8.095156656E0
1.475157880E0;1.412579060E0;7.671022415E0;-1.264138460E0;7.901772620E0
1.485105192E0;1.340752959E0;7.412448406E0;-1.824381709E0;7.750508273E0
1.495100848E0;1.235408068E0;7.177816868E0;-1.896207690E0;7.526147201E0
1.505125676E0;1.024718285E0;7.029376030E0;-1.446097851E0;7.249370588E0
1.515113090E0;9.050082564E-1;6.943184853E0;-1.240196466E0;7.110903115E0
1.525109797E0;8.619126081E-1;6.531382084E0;-1.355118155E0;6.725934172E0
1.535112651E0;4.022258818E-1;6.090848923E0;-1.771709204E0;6.356034909E0
1.545100078E0;1.484405100E-1;5.808333397E0;-1.934514999E0;6.123815781E0
1.555092291E0;4.884171486E-1;5.980715752E0;-1.532289028E0;6.193175428E0
1.565075898E0;1.355118155E0;6.914454460E0;-5.698199868E-1;7.068997136E0
1.575239201E0;1.905784607E0;7.896077156E0;3.351882473E-2;8.122879596E0
1.585194353E0;2.106897593E0;8.341399193E0;-2.011129409E-1;8.605719283E0
1.595132929E0;1.704671621E0;8.662221909E0;-2.585737705E-1;8.832148896E0
1.605103717E0;1.642422318E0;8.327033043E0;1.053448766E-1;8.488116865E0
1.615133111E0;1.982398987E0;8.034940720E0;1.915361360E-2;8.275901460E0
1.625135308E0;2.504334927E0;8.116343498E0;-3.543418646E-1;8.501310685E0
1.635132406E0;3.112462282E0;8.063671112E0;-1.244984865E0;8.732708662E0
1.645120455E0;3.031059265E0;8.034940720E0;-1.881842494E0;8.791411935E0
1.655144480E0;2.442085743E0;8.365341187E0;-1.675941229E0;8.874203905E0
1.665154492E0;3.069366693E0;9.179368973E0;-1.924938202E0;9.868496021E0
1.675115498E0;3.806780815E0;1.030943298E1;-3.150769472E0;1.143255601E1
1.685108501E0;3.936067581E0;1.132457447E1;-3.869029999E0;1.259793666E1
1.695119003E0;3.701435804E0;1.225831223E1;-3.155557871E0;1.318803970E1
1.705116254E0;2.844311714E0;1.265575027E1;-2.509123325E0;1.321188193E1
1.715099379E0;2.197877169E0;1.329260826E1;-1.345541358E0;1.354011004E1
1.725124442E0;1.948880196E0;1.273236465E1;-8.858546019E-1;1.291107982E1
1.735260973E0;1.690306425E0;1.324472427E1;-1.934514999E0;1.349156052E1
1.745175239E0;2.557007313E0;1.416888523E1;-2.197877169E0;1.456455489E1
1.755133372E0;3.639186621E0;1.543781281E1;-2.494758129E0;1.605595097E1
1.765105938E0;3.969586372E0;1.663012505E1;-3.002328873E0;1.735893584E1
1.775086721E0;3.605667830E0;1.746809578E1;-2.935291290E0;1.807625917E1
1.785190113E0;2.734178305E0;1.890940475E1;-2.614468336E0;1.928410651E1
1.795180809E0;2.408566952E0;1.920628548E1;-2.427720547E0;1.950836804E1
1.805174157E0;3.045424461E0;2.051830864E1;-2.877830505E0;2.094176468E1
1.815153331E0;3.864241600E0;2.086307335E1;-2.868253708E0;2.141091012E1
1.825216418E0;4.960785866E0;2.132754898E1;-2.322375536E0;2.201969959E1
1.835234461E0;5.616796970E0;2.140895081E1;-3.265691042E0;2.237311603E1
1.845216483E0;5.971138954E0;2.131318283E1;-4.654327869E0;2.261789183E1
1.855159994E0;5.597643375E0;2.155260277E1;-4.989516258E0;2.281980653E1
1.865193749E0;5.272032261E0;2.209848213E1;-4.616020679E0;2.318285754E1
1.875193627E0;5.856217384E0;2.269703293E1;-5.094861031E0;2.398766756E1
1.885144566E0;8.633491516E0;2.303222084E1;-6.593631268E0;2.546559141E1
1.895161535E0;1.036689377E1;2.297476006E1;-1.029027843E1;2.722502371E1
1.905168520E0;9.208099365E0;2.283589554E1;-1.076433086E1;2.687262618E1
1.915203012E0;6.555324078E0;2.035071373E1;-5.090072632E0;2.197800406E1
1.925147258E0;2.734178305E0;1.766442108E1;1.355118155E0;1.792606617E1
1.935112881E0;1.771709323E-1;1.436042213E1;2.020706177E0;1.450297786E1
1.945103193E0;4.405331016E-1;1.069250488E1;3.371036053E0;1.121996498E1
1.955114849E0;2.293645144E0;6.971915245E0;9.150638580E0;1.173041332E1
1.965081677E0;2.221819162E0;4.276044369E0;8.690952301E0;9.937489005E0
1.975122091E0;2.020706177E0;1.144428372E0;7.838616371E0;8.175382338E0
1.985119298E0;-2.059013397E-1;-1.953668594E0;1.086967564E1;1.104577135E1
1.995102401E0;-1.853112102E0;-3.960009575E0;1.233013916E1;1.308235575E1
2.005126953E0;-1.436520964E-1;-5.305551052E0;8.456320763E0;9.983930525E0
2.015098729E0;5.080495834E0;-3.495534420E0;2.849100113E0;6.793200296E0
2.025134617E0;3.198653460E0;3.639186621E-1;2.212242365E0;3.906128138E0
2.035196561E0;2.446874142E0;3.610456228E0;2.049436569E0;4.819001711E0
2.045139533E0;7.948749661E-1;4.683058739E0;2.877830505E0;5.553807143E0
2.055097519E0;-5.075707436E-1;4.989516258E0;1.843535304E0;5.343362515E0
2.065091012E0;-1.446097851E0;3.979163170E0;9.528923035E-1;4.339693799E0
2.075135258E0;-5.985504389E-1;2.973598480E0;-1.881842494E0;3.569577247E0
2.085149381E0;2.489969730E-1;9.050082564E-1;-3.351882458E0;3.480826834E0
2.095121943E0;-3.399766386E-1;-1.891419291E0;-2.571372509E0;3.210141372E0
2.105106724E0;-1.819593310E0;-4.625597477E0;-2.892195702E0;5.750814535E0
2.115156614E0;-2.226607561E0;-5.765237808E0;-3.447650433E0;7.076866660E0
2.125124559E0;-1.493981838E0;-5.037400246E0;-2.758120298E0;5.934189966E0
2.135099532E0;-1.005564690E0;-3.404554844E0;-2.197877169E0;4.175262636E0
2.145080018E0;-9.768342972E-1;-1.599326730E0;-1.661576033E0;2.504573046E0
2.155077761E0;-1.096544385E0;-2.059013397E-1;-1.283292055E0;1.700483299E0
2.165088633E0;-1.225831270E0;8.236053586E-1;-1.173158884E0;1.886077903E0
2.175075569E0;-9.864110947E-1;1.517923832E0;-6.799532771E-1;1.933762153E0
2.185079037E0;-1.628057212E-1;1.781286120E0;-8.140286058E-2;1.790562027E0
2.195080271E0;3.208230138E-1;1.632845521E0;5.267243832E-2;1.664898281E0
2.205084888E0;5.075707436E-1;1.244984865E0;-6.129156351E-1;1.477592958E0
2.215094196E0;1.182735682E0;1.192312479E0;-1.043871999E0;1.977407770E0
2.225141350E0;1.158793569E0;1.125274777E0;-8.427590132E-1;1.821891493E0
2.235228427E0;7.422025204E-1;7.948749661E-1;-7.757213712E-1;1.335827249E0
2.245184466E0;-4.788403399E-3;4.405331016E-1;-7.134721279E-1;8.385313469E-1
2.255134485E0;-7.038952708E-1;3.016694188E-1;-4.261679053E-1;8.764086228E-1
2.265143995E0;-1.623268723E0;3.543418646E-1;2.394201607E-2;1.661665648E0
2.275125250E0;-1.790862918E0;4.501099288E-1;4.261679053E-1;1.895101059E0
2.285125877E0;-1.699883223E0;5.746083856E-1;2.346317619E-1;1.809649091E0
2.295129691E0;-1.470039845E0;5.985504389E-1;-4.788403213E-2;1.587946048E0
2.305107598E0;-1.082179189E0;8.762778044E-1;-2.489969730E-1;1.414557910E0
2.315117051E0;-4.740519226E-1;1.177947283E0;8.140286058E-2;1.272364512E0
2.325121278E0;3.639186621E-1;1.723825216E0;1.819593310E-1;1.771191511E0
2.335118391E0;1.637633920E0;2.422932148E0;-5.267243981E-1;2.971512012E0
2.345120448E0;2.408566952E0;3.596091032E0;4.405331016E-1;4.350532713E0
2.355115476E0;3.208230257E0;4.979939461E0;-2.566584110E0;6.455996624E0
2.365516990E0;4.108449936E0;8.451532364E0;-3.739742994E0;1.011402184E1
2.375545247E0;4.702212334E0;1.394861889E1;3.591302633E-1;1.472425700E1
2.385333876E0;4.065354347E0;2.226607513E1;-1.589749932E0;2.268992095E1
2.395227690E0;8.116343498E0;2.786850739E1;-1.030464458E1;3.080120835E1
2.405189597E0;1.131020927E1;3.440946579E1;-1.379060149E0;3.624684782E1
2.415141551E0;1.278503704E1;3.751235199E1;-2.762908697E0;3.972741356E1
2.425110028E0;1.119528675E1;3.203442001E1;4.070142806E-1;3.393676725E1
2.435097766E0;-3.356670856E0;3.268564224E1;3.605667830E0;3.305479222E1
2.445106635E0;-1.241633034E1;3.411258698E1;2.453577995E1;4.381595996E1
2.455109070E0;2.619256735E0;2.504335022E1;-1.359906578E1;2.861755556E1
2.465102787E0;1.296220779E1;1.852633286E1;-3.880522156E1;4.491201465E1
2.475098646E0;8.987833023E0;1.359427738E1;-6.521805286E0;1.755333200E1
2.487662075E0;3.720589399E0;8.427590370E0;8.140285611E-1;9.248227258E0
2.505451505E0;4.022258818E-1;5.995080948E0;-5.607220173E0;8.218497387E0
2.515081505E0;3.926490843E-1;7.723694801E0;-5.473145008E0;9.474436710E0
2.525148505E0;3.327940464E0;1.096065521E1;-3.327940464E0;1.192838372E1
2.535069505E0;2.389413357E0;1.333570385E1;-5.075707436E-1;1.355757801E1
2.545173505E0;1.077390790E0;1.462857246E1;1.106121182E0;1.470984049E1
2.555078505E0;1.383848548E0;1.550485039E1;8.714894056E-1;1.559086002E1
2.565078505E0;2.849100113E0;1.493502998E1;-1.915361360E-2;1.520436973E1
2.575114505E0;2.604891539E0;1.306276417E1;4.788403399E-3;1.331995835E1
2.585116505E0;1.996764183E0;1.119049835E1;4.548983276E-1;1.137634621E1
2.595156505E0;1.570596337E0;9.868899345E0;6.895300746E-1;1.001685574E1
2.605124505E0;1.714248419E0;8.590395927E0;-1.149216816E-1;8.760522634E0
2.615056505E0;1.192312479E0;7.479485989E0;-7.230489254E-1;7.608358525E0
2.625127505E0;8.810662031E-1;6.459556103E0;-4.261679053E-1;6.533281089E0
2.635147505E0;9.385270476E-1;5.645527840E0;-2.873042040E-2;5.723079857E0
2.645102505E0;1.379060149E0;5.410895824E0;-2.777273953E-1;5.590772131E0
2.655098505E0;1.810016513E0;5.276820660E0;-4.213795066E-1;5.594511305E0
2.665086505E0;1.833958507E0;5.358223438E0;-3.591302633E-1;5.674763146E0
2.675111505E0;1.848323703E0;5.659893036E0;-2.346317619E-1;5.958669462E0
2.685072505E0;2.126051188E0;6.086060524E0;-1.867477298E-1;6.449426414E0
2.695130505E0;2.274491549E0;6.545747280E0;-3.447650373E-1;6.938226156E0
2.705093505E0;2.264914751E0;6.914454460E0;-2.968810201E-1;7.282009177E0
2.715142505E0;1.915361404E0;7.335834026E0;-1.867477298E-1;7.584058602E0
2.725079505E0;1.637633920E0;7.704541206E0;-1.436520964E-1;7.877971565E0
2.735083505E0;1.517923832E0;8.097189903E0;-2.011129409E-1;8.240693145E0
2.745115505E0;1.278503656E0;8.609549522E0;-5.410895944E-1;8.720762153E0
2.755109505E0;1.187524080E0;9.126696587E0;-8.906430602E-1;9.246623659E0
2.765115505E0;1.120486379E0;9.686940193E0;-8.619126081E-1;9.789545106E0
2.775090505E0;1.029506683E0;1.013226128E1;-7.422025204E-1;1.021143806E1
2.785066505E0;1.340752959E0;1.060152531E1;-7.230489254E-1;1.071040415E1
2.795404505E0;1.790862918E0;1.083136845E1;-7.613561153E-1;1.100478966E1
2.805602505E0;2.063801765E0;1.103726959E1;-9.528923035E-1;1.126892193E1
2.815181505E0;2.188300371E0;1.109951878E1;-1.125274777E0;1.136900255E1
2.825790505E0;2.097320795E0;1.125753593E1;-1.000776291E0;1.149488682E1
2.835094505E0;1.915361404E0;1.124317074E1;-9.385270476E-1;1.144370266E1
2.845239505E0;1.829170108E0;1.119528675E1;-8.619126081E-1;1.137643187E1
2.855909505E0;1.924938202E0;1.105642319E1;-6.847416759E-1;1.124360938E1
2.865122505E0;1.891419291E0;1.083136845E1;-7.230489254E-1;1.101902033E1
2.875118505E0;1.704671621E0;1.048181534E1;-7.469909191E-1;1.064576693E1
2.885204505E0;1.297657371E0;1.022324085E1;-6.129156351E-1;1.032347973E1
2.895152505E0;1.115697980E0;9.983820915E0;-5.698199868E-1;1.006211493E1
2.905184505E0;1.158793569E0;9.639056206E0;-7.948749661E-1;9.740946221E0
2.915261505E0;1.355118155E0;9.294290543E0;-9.050082564E-1;9.436059657E0
2.925341505E0;1.441309452E0;9.136273384E0;-8.571242094E-1;9.288892625E0
2.935137505E0;1.474828243E0;9.107542992E0;-4.548983276E-1;9.237390875E0
2.945066505E0;1.752555609E0;9.040505409E0;-2.298433632E-1;9.211678305E0
2.955448505E0;1.987187386E0;8.920795441E0;-4.309563041E-1;9.149602633E0
2.965090505E0;1.987187386E0;8.657433510E0;-8.283938169E-1;8.921115681E0
2.975097505E0;1.963245392E0;8.590395927E0;-7.278373241E-1;8.841887911E0
2.985090505E0;1.843535304E0;8.590395927E0;-4.453215301E-1;8.797262976E0
2.995145505E0;1.709460020E0;8.628703117E0;-3.591302633E-1;8.803734753E0
3.005378505E0;1.647210717E0;8.690952301E0;-2.250549644E-1;8.848536872E0
3.015103505E0;1.810016513E0;8.781931877E0;-1.915361285E-1;8.968565847E0
3.025105505E0;1.810016513E0;8.949525833E0;-1.436520964E-1;9.131856785E0
3.035221505E0;1.771709204E0;9.160215378E0;-1.005564705E-1;9.330520397E0
3.045155505E0;1.733402014E0;9.241618156E0;-1.867477298E-1;9.404629892E0
3.055130505E0;1.541865945E0;9.212887764E0;-4.022258818E-1;9.349675781E0
3.065077505E0;1.379060149E0;9.232041359E0;-4.405331016E-1;9.344862972E0
3.075116505E0;1.613691926E0;9.299078941E0;-4.022258818E-1;9.446621430E0
3.085160505E0;1.881842494E0;9.308655739E0;-2.298433632E-1;9.499748987E0
3.095097505E0;1.843535304E0;9.500192642E0;-1.292868853E-1;9.678274524E0
3.105768505E0;1.795651317E0;9.691728592E0;-3.016694188E-1;9.861286488E0
3.115152505E0;1.742978811E0;9.749189377E0;-2.250549644E-1;9.906327189E0
3.125123505E0;1.675941229E0;9.864110947E0;-4.309562966E-2;1.000556450E1
3.135043505E0;1.690306425E0;9.840168953E0;8.140286058E-2;9.984622540E0
3.145092505E0;1.561019540E0;9.753977776E0;-2.298433632E-1;9.880773878E0
3.155113505E0;1.388636947E0;9.667786598E0;-2.777273953E-1;9.770954037E0
3.165120505E0;1.350329757E0;9.605537415E0;-3.208230138E-1;9.705290664E0
3.175123505E0;1.350329757E0;9.648633003E0;-3.734954596E-1;9.749820929E0
3.185154505E0;1.321599364E0;9.840168953E0;-3.447650373E-1;9.934506170E0
3.195101505E0;1.326387763E0;9.753977776E0;-3.351882398E-1;9.849453696E0
3.205115505E0;1.379060149E0;9.739612579E0;-3.639186621E-1;9.843490076E0
3.215061505E0;1.484405041E0;9.648633003E0;-2.920926213E-1;9.766519096E0
3.225079505E0;1.484405041E0;9.629479408E0;-2.777273953E-1;9.747177258E0
3.235068505E0;1.460463047E0;9.586383820E0;-2.106897533E-1;9.699283335E0
3.245176505E0;1.350329757E0;9.538499832E0;-1.436521020E-2;9.633616967E0
3.255134505E0;1.474828243E0;9.461885452E0;5.267243832E-2;9.576281588E0
3.265127505E0;1.608903527E0;9.442731857E0;-7.182604820E-2;9.579087351E0
3.275076505E0;1.690306425E0;9.327810287E0;-3.208230138E-1;9.485151974E0
3.285108505E0;1.857900500E0;9.193734169E0;-5.171475410E-1;9.393826900E0
3.295060505E0;1.838746905E0;9.169792175E0;-7.900865674E-1;9.385644118E0
3.305167505E0;2.011129379E0;9.232041359E0;-1.034295082E0;9.504998440E0
3.315081505E0;2.082955360E0;9.303867340E0;-1.249773264E0;9.615746655E0
3.325101505E0;1.896207690E0;9.490615845E0;-1.297657371E0;9.764799402E0
3.335096505E0;1.575384736E0;9.576807022E0;-1.000776291E0;9.756978169E0
3.345092505E0;1.374271750E0;9.744400978E0;-4.836287498E-1;9.852708766E0
3.355115505E0;8.619126081E-1;1.011310768E1;9.576806799E-3;1.014977497E1
3.365136505E0;1.225831270E0;9.734824181E0;3.064578176E-1;9.816485141E0
3.375139505E0;1.407790542E0;9.825803757E0;5.458779931E-1;9.941140601E0
3.385178505E0;1.364694953E0;9.787496567E0;7.278373241E-1;9.908946893E0
3.395074505E0;1.086967587E0;9.749189377E0;8.762778044E-1;9.848657514E0
3.405097505E0;7.948749661E-1;9.634267807E0;9.576807022E-1;9.714324203E0
3.415119505E0;8.092401624E-1;9.648633003E0;9.481038451E-1;9.728817470E0
3.425094505E0;8.331822157E-1;9.615114212E0;7.565677166E-1;9.680754548E0
3.435142505E0;8.954314590E-1;9.557653427E0;4.548983276E-1;9.610279341E0
3.445105505E0;9.097966552E-1;9.528923035E0;1.867477298E-1;9.574078487E0
3.455136505E0;1.053448766E-1;9.758766174E0;7.661445439E-2;9.759635473E0
3.465091505E0;1.197100878E-1;9.509769440E0;-1.675941199E-1;9.511999427E0
3.475114505E0;3.016694188E-1;9.375694275E0;-2.968810201E-1;9.385242986E0
3.485066505E0;2.537853718E-1;9.414001465E0;-2.489969730E-1;9.420712823E0
3.495089505E0;3.782838583E-1;9.323021889E0;-2.298433632E-1;9.333523653E0
3.505082505E0;3.639186621E-1;9.217676163E0;-5.171475410E-1;9.239341546E0
3.515101505E0;3.734954596E-1;9.054870605E0;-5.554547906E-1;9.079576563E0
3.525122505E0;4.740519226E-1;8.959102631E0;-5.171475410E-1;8.986528070E0
3.535164505E0;5.123591423E-1;8.801085472E0;-3.591302633E-1;8.823298245E0
3.545148505E0;6.368576288E-1;8.724471092E0;-1.628057212E-1;8.749199345E0
3.555195505E0;8.858546019E-1;8.418013573E0;4.309562966E-2;8.464605609E0
3.565126505E0;1.086967587E0;8.188169479E0;1.053448766E-1;8.260672824E0
3.575122505E0;1.335964561E0;8.058882713E0;1.819593310E-1;8.170893531E0
3.585072505E0;1.422155857E0;7.924807549E0;1.005564705E-1;8.052031642E0
3.595090505E0;1.446097851E0;7.742848396E0;2.011129409E-1;7.879298617E0
3.605239505E0;2.873042107E0;8.020575523E0;1.723825186E-1;8.521368341E0
3.615153505E0;9.246406555E0;6.976703644E0;9.236829758E0;1.481517640E1
3.625207505E0;4.261679173E0;7.642292023E0;2.269703150E0;9.039805812E0
3.635069505E0;5.013458252E0;7.196970463E0;4.606443882E0;9.907092042E0
3.645127505E0;4.462791920E0;7.311892033E0;7.431602001E0;1.134059016E1
3.655077505E0;1.958456993E0;7.752425194E0;7.393294811E0;1.089020011E1
3.665078505E0;6.224924326E-2;7.244854450E0;7.608773232E0;1.050643713E1
3.675080505E0;-3.303998411E-1;7.378929615E0;6.076483727E0;9.564592035E0
3.685173505E0;1.915361285E-1;8.130708694E0;4.927267075E0;9.509104626E0
3.695139505E0;6.081272364E-1;8.858546257E0;4.793191910E0;1.009050788E1
3.705235505E0;8.619126081E-1;8.757989883E0;4.797980309E0;1.002326769E1
3.715102505E0;1.091755986E0;8.001421928E0;4.486733913E0;9.238260941E0
3.725093505E0;1.192312479E0;7.378929615E0;3.869029999E0;8.416626666E0
3.735104505E0;1.082179189E0;7.220912457E0;3.347094059E0;8.032168271E0
3.745083505E0;9.337386489E-1;7.125144482E0;3.284844637E0;7.901250283E0
3.755076505E0;1.005564690E0;7.177816868E0;3.682282209E0;8.129662822E0
3.765050505E0;1.120486379E0;7.268796444E0;4.558559895E0;8.652823804E0
3.775162505E0;1.297657371E0;7.268796444E0;5.626373768E0;9.283070514E0
3.785148505E0;1.479616642E0;7.024587631E0;6.995857239E0;1.002377750E1
3.795057505E0;1.752555609E0;6.756437302E0;8.288725853E0;1.083622962E1
3.805108505E0;1.862688899E0;6.344634533E0;9.155426979E0;1.129361946E1
3.815137505E0;1.738190413E0;5.913678169E0;9.658209801E0;1.145748279E1
3.825104505E0;2.968810201E-1;5.171475887E0;9.581595421E0;1.089216562E1
3.835044505E0;4.644751251E-1;5.679046631E0;8.786720276E0;1.047252410E1
3.845106505E0;7.948749661E-1;6.320692539E0;9.145850182E0;1.114583133E1
3.855158505E0;9.959878922E-1;6.555324078E0;8.963891029E0;1.114969094E1
3.865135505E0;7.469909191E-1;6.368576527E0;8.494627953E0;1.064309478E1
3.875138505E0;3.926490843E-1;6.244078159E0;8.532935143E0;1.058081601E1
3.885071505E0;3.351882398E-1;6.119579315E0;8.614337921E0;1.057205845E1
3.895204505E0;4.309563041E-1;5.985504150E0;8.485051155E0;1.039269341E1
3.905106505E0;7.374141216E-1;5.918466568E0;8.552088737E0;1.042642066E1
3.915062505E0;9.481038451E-1;5.822698593E0;8.657433510E0;1.047634835E1
3.925081505E0;1.101332784E0;5.702988625E0;8.623914719E0;1.039754386E1
3.935086505E0;1.177947283E0;5.501875401E0;8.700529099E0;1.036134158E1
3.945148505E0;1.110909581E0;5.291185856E0;8.944737434E0;1.045175084E1
3.955202505E0;9.624691010E-1;5.075707436E0;8.863334656E0;1.025903767E1
3.965195505E0;8.619126081E-1;4.865017891E0;8.949525833E0;1.022278363E1
3.975095505E0;6.847416759E-1;4.812345505E0;9.136273384E0;1.034886621E1
3.985113505E0;4.453215301E-1;4.812345505E0;9.260771751E0;1.044599799E1
3.995116505E0;3.303998411E-1;4.841075897E0;9.370905876E0;1.055268008E1
4.005580505E0;2.729389966E-1;4.874594688E0;9.131484985E0;1.035471811E1
4.015180505E0;2.346317619E-1;4.836287498E0;8.566453934E0;9.840165742E0
4.025150505E0;6.224924326E-2;4.807557106E0;8.499416351E0;9.765068285E0
4.035124505E0;2.873042040E-2;4.515464306E0;8.825027466E0;9.913190864E0
4.045126505E0;3.208230138E-1;4.242525578E0;9.174580574E0;1.011310434E1
4.055257505E0;3.878606856E-1;4.309563160E0;9.059659004E0;1.003992987E1
4.065132505E0;4.261679053E-1;4.414907932E0;8.815450668E0;9.868394075E0
4.075129505E0;5.985504389E-1;4.414907932E0;8.757989883E0;9.826090854E0
4.085126505E0;9.241618514E-1;4.453215122E0;8.992621422E0;1.007732306E1
4.095189505E0;1.259350061E0;4.405331135E0;8.690952301E0;9.824742077E0
4.105388505E0;1.446097851E0;4.285621166E0;8.073247910E0;9.253922389E0
4.115086505E0;1.340752959E0;4.295197964E0;8.279149055E0;9.422879238E0
4.125156505E0;1.010353088E0;4.357447147E0;9.169792175E0;1.020260984E1
4.135084505E0;7.661445141E-1;4.252102375E0;9.710882187E0;1.062866807E1
4.145104505E0;6.320692301E-1;4.108449936E0;9.567230225E0;1.043123993E1
4.155318505E0;5.458779931E-1;3.969586372E0;8.791508675E0;9.661584939E0
4.165085505E0;3.974374831E-1;3.840299606E0;8.140285492E0;9.009445350E0
4.175072505E0;2.873041928E-1;3.859453201E0;7.924807549E0;8.819325223E0
4.185143505E0;4.022258818E-1;3.945644379E0;8.068459511E0;8.990546930E0
4.195188505E0;5.841852427E-1;4.079719543E0;8.010998726E0;9.008966896E0
4.205123505E0;6.847416759E-1;4.180276394E0;7.694964409E0;8.783852181E0
4.215065505E0;6.512228847E-1;4.094084740E0;7.220912457E0;8.326295563E0
4.225096505E0;-5.123591423E-1;4.122815132E0;6.904877663E0;8.058377755E0
4.235167505E0;1.436520964E-1;3.902548790E0;7.350199223E0;8.323217623E0
4.245121505E0;1.254561663E0;3.596091032E0;7.977479935E0;8.840021594E0
4.255113505E0;1.762132406E0;3.442862034E0;8.470685959E0;9.311870393E0
4.265188505E0;1.575384736E0;3.438073635E0;9.083600998E0;9.839410271E0
4.275146505E0;1.254561663E0;3.624821424E0;1.015620327E1;1.085641378E1
4.285104505E0;1.082179189E0;3.792415380E0;1.105642319E1;1.173874013E1
4.295120505E0;1.063025594E0;3.538630009E0;1.106599998E1;1.166654539E1
4.305125505E0;6.991068721E-1;3.289633036E0;1.005564690E1;1.060313493E1
4.315133505E0;3.495534360E-1;3.251325846E0;8.801085472E0;9.388951637E0
4.325160505E0;3.878606856E-1;3.318363667E0;8.298302650E0;8.945602283E0
4.335078505E0;6.895300746E-1;3.083731890E0;8.116343498E0;8.709758083E0
4.345181505E0;7.900865674E-1;3.102885485E0;7.781155586E0;8.414185485E0
4.355155505E0;6.799532771E-1;3.299209833E0;7.843404770E0;8.536165437E0
4.365138505E0;6.799532771E-1;3.457227230E0;8.145073891E0;8.874513241E0
4.375095505E0;1.115697980E0;3.280056238E0;8.485051155E0;9.165131969E0
4.385071505E0;1.369483352E0;3.112462282E0;8.542511940E0;9.194423112E0
4.395141505E0;1.264138460E0;3.016694069E0;8.446743965E0;9.057923204E0
4.405170505E0;1.029506683E0;2.949656487E0;8.360552788E0;8.925200296E0
4.415173505E0;7.661445141E-1;2.916137695E0;8.494627953E0;9.013852702E0
4.425089505E0;5.650315881E-1;3.002328873E0;8.643068314E0;9.167108008E0
4.435189505E0;4.932055473E-1;3.107673883E0;8.939949036E0;9.477530134E0
4.445229505E0;6.224924326E-1;3.069366693E0;9.198522568E0;9.717063659E0
4.455168505E0;7.086837292E-1;3.040636063E0;8.983044624E0;9.510141482E0
4.465073505E0;6.799532771E-1;3.117250681E0;8.470685959E0;9.051635702E0
4.475215505E0;6.464344859E-1;3.184288263E0;8.101978302E0;8.729239468E0
4.485093505E0;6.607996821E-1;3.246537447E0;8.054094315E0;8.708909050E0
4.495058505E0;6.081272364E-1;3.318363667E0;8.384494781E0;9.037760171E0
4.505181505E0;6.224924326E-1;3.371036053E0;8.734047890E0;9.382695425E0
4.515267505E0;8.188169599E-1;3.356670856E0;8.944737434E0;9.588849160E0
4.525708505E0;8.379706144E-1;3.174711466E0;8.848969460E0;9.438498193E0
4.535262505E0;7.182605267E-1;3.160346270E0;8.930372238E0;9.500275524E0
4.545146505E0;6.895300746E-1;3.055001259E0;9.246406555E0;9.762403321E0
4.555251505E0;9.624691010E-1;3.002328873E0;9.361329079E0;9.877996130E0
4.565228505E0;1.177947283E0;2.944868088E0;9.332598686E0;9.856835501E0
4.575055505E0;1.230619669E0;3.021482468E0;9.141061783E0;9.705812258E0
4.585222505E0;1.168370485E0;3.050212860E0;8.757989883E0;9.347260287E0
4.595116505E0;1.082179189E0;3.098097086E0;8.437167168E0;9.052906007E0
4.605090505E0;7.613561153E-1;3.217807055E0;8.231265068E0;8.870607082E0
4.615029505E0;6.224924326E-1;3.275267839E0;8.178592682E0;8.832001727E0
4.625310505E0;7.422025204E-1;3.284844637E0;8.451532364E0;9.097772704E0
4.635331505E0;8.283938169E-1;3.251325846E0;8.695740700E0;9.320582728E0
4.645492505E0;9.050082564E-1;3.366247654E0;8.786720276E0;9.452889316E0
4.655103505E0;1.010353088E0;3.509899616E0;8.681375504E0;9.418412250E0
4.665196505E0;1.177947283E0;3.572149038E0;8.623914719E0;9.408491570E0
4.675358505E0;1.264138460E0;3.620033026E0;8.686163902E0;9.494847471E0
4.685244505E0;1.082179189E0;3.701435804E0;8.729259491E0;9.543149903E0
4.695299505E0;8.331822157E-1;3.711012602E0;8.748413086E0;9.539420247E0
4.705208505E0;7.182605267E-1;3.562572241E0;8.738836288E0;9.464411172E0
4.715252505E0;9.911994934E-1;3.447650433E0;8.892065048E0;9.588409188E0
4.725484505E0;1.240196466E0;3.457227230E0;9.030928612E0;9.749265561E0
4.735217505E0;1.201889277E0;3.442862034E0;8.930372238E0;9.646210921E0
4.745930505E0;9.385270476E-1;3.438073635E0;8.805873871E0;9.499715678E0
4.755426505E0;7.996633649E-1;3.418920040E0;8.662221909E0;9.346794324E0
4.765310505E0;9.097966552E-1;3.342305660E0;8.657433510E0;9.324692599E0
4.775174505E0;1.053448796E0;3.390189648E0;8.724471092E0;9.419104843E0
4.785276505E0;1.039083481E0;3.375824451E0;8.781931877E0;9.465633244E0
4.795085505E0;9.624691010E-1;3.476380825E0;7.445967197E0;8.273693124E0
4.805355505E0;1.379060149E0;3.562572241E0;6.861782074E0;7.853520300E0
4.815325505E0;1.527500629E0;3.418920040E0;7.757213593E0;8.613746870E0
4.825074505E0;1.163581967E0;3.280056238E0;9.069235802E0;9.714099544E0
4.835156505E0;9.768342972E-1;3.232172251E0;9.825803757E0;1.038978162E1
4.845599505E0;9.481038451E-1;3.280056238E0;1.015620327E1;1.071476247E1
4.855241505E0;9.672574997E-1;3.313575268E0;9.437943459E0;1.004938530E1
4.865580505E0;8.092401624E-1;3.213018656E0;8.724471092E0;9.332457038E0
4.875146505E0;6.655880809E-1;3.246537447E0;8.772355080E0;9.377485086E0
4.885215505E0;6.751648784E-1;3.442862034E0;9.289502144E0;9.929954515E0
4.895072505E0;6.368576288E-1;3.457227230E0;9.777919769E0;1.039065555E1
4.905567505E0;7.613561153E-1;3.327940464E0;9.548076630E0;1.014005021E1
4.915597505E0;8.379706144E-1;3.289633036E0;9.155426979E0;9.764513476E0
4.925380505E0;1.053448796E0;3.414131641E0;8.547300339E0;9.264037582E0
4.935147505E0;1.470039845E0;3.634398222E0;7.896077156E0;8.815775748E0
4.945089505E0;1.651999116E0;3.859453201E0;7.910442352E0;8.955421727E0
4.955186505E0;1.455674648E0;3.792415380E0;8.202534676E0;9.153304223E0
4.961008664E0;1.010353088E0;3.083731890E0;8.877699852E0;9.452183366E0
4.982568914E0;1.072602391E0;2.964021683E0;8.963891029E0;9.501959946E0
4.998508539E0;1.067813993E0;3.002328873E0;9.006986618E0;9.554057427E0
5.011373851E0;1.082179189E0;3.059789658E0;9.006986618E0;9.573882832E0
5.022821507E0;1.077390790E0;3.145981073E0;9.006986618E0;9.601238241E0
5.033685335E0;1.086967587E0;3.189076662E0;8.920795441E0;9.535842899E0
5.043980749E0;1.120486379E0;3.208230257E0;8.944737434E0;9.568519158E0
5.054168956E0;1.048660398E0;3.284844637E0;8.839392662E0;9.488137623E0
5.064332560E0;1.019929886E0;3.308786631E0;8.834604263E0;9.488864970E0
5.074482862E0;1.029506683E0;3.275267839E0;8.868123055E0;9.509514706E0
5.084564513E0;1.000776291E0;3.246537447E0;8.901641846E0;9.527895157E0
5.094502838E0;8.858546019E-1;3.232172251E0;8.810662270E0;9.426528813E0
5.104334001E0;9.289502501E-1;3.165134668E0;8.777143478E0;9.376527805E0
5.114352082E0;9.481038451E-1;3.126827478E0;8.882488251E0;9.464383155E0
5.124341123E0;1.010353088E0;3.069366693E0;8.925583839E0;9.492516639E0
5.134327643E0;9.768342972E-1;3.016694069E0;8.959102631E0;9.503692351E0
5.144242403E0;1.005564690E0;3.059789658E0;9.011775017E0;9.570034590E0
5.154215283E0;1.015141487E0;3.045424461E0;8.911218643E0;9.471797089E0
5.164256723E0;9.959878922E-1;3.040636063E0;8.791508675E0;9.355644517E0
5.174224943E0;9.002198577E-1;3.122039080E0;8.667010307E0;9.256057016E0
5.184391053E0;8.475474119E-1;3.165134668E0;8.623914719E0;9.225417018E0
5.194418608E0;9.720458984E-1;3.184288263E0;8.772355080E0;9.382898199E0
5.204302886E0;1.182735682E0;3.107673883E0;8.949525833E0;9.547277795E0
5.214387525E0;1.221042871E0;3.031059265E0;8.911218643E0;9.491474262E0
5.224372844E0;1.115697980E0;3.088520288E0;8.834604263E0;9.425177560E0
5.234459004E0;1.015141487E0;3.198653460E0;8.863334656E0;9.477372917E0
5.244416084E0;1.058237195E0;3.246537447E0;8.772355080E0;9.413505458E0
5.254303124E0;1.024718285E0;3.265691042E0;8.714894295E0;9.362914510E0
5.264364644E0;9.433154464E-1;3.222595453E0;8.695740700E0;9.321527332E0
5.274413904E0;9.528923035E-1;3.165134668E0;8.781931877E0;9.383411358E0
5.284443034E0;1.043871999E0;3.141192675E0;8.834604263E0;9.434351735E0
5.294445099E0;1.039083481E0;3.098097086E0;8.801085472E0;9.388131098E0
5.304313131E0;1.005564690E0;3.093308687E0;8.796297073E0;9.378409310E0
5.314513647E0;1.024718285E0;3.102885485E0;8.887276649E0;9.468982635E0
5.324452405E0;1.082179189E0;3.150769472E0;8.944737434E0;9.544987576E0
5.334486784E0;1.029506683E0;3.160346270E0;8.963891029E0;9.560283204E0
5.344575974E0;9.289502501E-1;3.131615877E0;8.963891029E0;9.540508842E0
5.354394069E0;9.816226959E-1;3.107673883E0;8.906430244E0;9.483971730E0
5.364277116E0;1.010353088E0;3.107673883E0;8.805873871E0;9.392649517E0
5.374201640E0;9.911994934E-1;3.122039080E0;8.734047890E0;9.328086459E0
5.384159902E0;9.481038451E-1;3.189076662E0;8.690952301E0;9.306006810E0
5.394187533E0;1.015141487E0;3.232172251E0;8.695740700E0;9.332382119E0
5.404397848E0;1.063025594E0;3.198653460E0;8.738836288E0;9.366358259E0
5.414497006E0;1.053448796E0;3.131615877E0;8.954314232E0;9.544449472E0
5.424450085E0;9.911994934E-1;3.136404276E0;9.121908188E0;9.696840579E0
5.434417124E0;1.034295082E0;3.136404276E0;9.002198219E0;9.588867028E0
5.444250644E0;1.106121182E0;3.141192675E0;8.796297073E0;9.405606716E0
5.454117904E0;1.101332784E0;3.193865061E0;8.743624687E0;9.373616196E0
5.464082534E0;1.149216771E0;3.160346270E0;8.772355080E0;9.394823116E0
5.474031849E0;1.177947283E0;3.141192675E0;8.920795441E0;9.530752463E0
5.484011006E0;1.158793569E0;3.107673883E0;8.973467827E0;9.566794883E0
5.494061085E0;1.043871999E0;3.088520288E0;8.959102631E0;9.533842157E0
5.504124624E0;8.906430602E-1;3.107673883E0;8.911218643E0;9.479488369E0
5.514108394E0;8.954314590E-1;3.050212860E0;8.901641846E0;9.452239075E0
5.524135279E0;9.864110947E-1;3.064578056E0;8.767566681E0;9.339960975E0
5.534347221E0;1.010353088E0;3.083731890E0;8.767566681E0;9.348820312E0
5.544204692E0;1.034295082E0;3.102885485E0;8.719682693E0;9.312922792E0
5.554118428E0;1.154005170E0;3.078943491E0;8.796297073E0;9.390764780E0
5.564051296E0;1.158793569E0;3.040636063E0;8.805873871E0;9.387847721E0
5.574000230E0;1.005564690E0;3.040636063E0;8.882488251E0;9.442204485E0
5.584075197E0;9.816226959E-1;3.078943491E0;8.963891029E0;9.528631514E0
5.594481680E0;9.959878922E-1;3.122039080E0;8.959102631E0;9.539635205E0
5.604242922E0;1.015141487E0;3.203441858E0;8.853757858E0;9.470035913E0
5.614104043E0;9.768342972E-1;3.184288263E0;8.767566681E0;9.378919047E0
5.624064603E0;9.959878922E-1;3.184288263E0;8.834604263E0;9.443617745E0
5.634037383E0;1.120486379E0;3.155557871E0;8.892065048E0;9.501676485E0
5.644124273E0;1.096544385E0;3.189076662E0;9.016563416E0;9.626579630E0
5.654096218E0;9.768342972E-1;3.203441858E0;9.064447403E0;9.663356130E0
5.664300691E0;1.034295082E0;3.203441858E0;8.920795441E0;9.534799282E0
5.674311427E0;1.034295082E0;3.203441858E0;8.714894295E0;9.342440186E0
5.684218795E0;1.000776291E0;3.112462282E0;8.738836288E0;9.330393042E0
5.694156479E0;9.289502501E-1;3.098097086E0;8.820239067E0;9.394560731E0
5.704150821E0;9.481038451E-1;3.083731890E0;8.911218643E0;9.477242266E0
5.714146492E0;9.097966552E-1;3.131615877E0;8.916007042E0;9.493678398E0
5.724171828E0;9.528923035E-1;3.155557871E0;8.791508675E0;9.389151932E0
5.734233496E0;9.097966552E-1;3.141192675E0;8.724471092E0;9.317253738E0
5.744167830E0;9.097966552E-1;3.155557871E0;8.796297073E0;9.389361940E0
5.754103997E0;9.433154464E-1;3.179499865E0;8.829815865E0;9.432110666E0
5.764111080E0;9.385270476E-1;3.126827478E0;8.858546257E0;9.440959956E0
5.774086622E0;9.241618514E-1;3.102885485E0;8.877699852E0;9.449631110E0
5.784174893E0;9.528923035E-1;3.069366693E0;8.892065048E0;9.455042912E0
5.794213028E0;1.019929886E0;3.078943491E0;8.877699852E0;9.451650896E0
5.804309596E0;1.034295082E0;3.126827478E0;8.810662270E0;9.406093027E0
5.814139880E0;1.120486379E0;3.155557871E0;8.767566681E0;9.385268281E0
5.824141022E0;1.168370485E0;3.160346270E0;8.796297073E0;9.419539285E0
5.834253593E0;1.019929886E0;3.198653460E0;8.810662270E0;9.428648395E0
5.844203378E0;9.672574997E-1;3.165134668E0;8.825027466E0;9.425220120E0
5.854230271E0;1.005564690E0;3.136404276E0;8.959102631E0;9.545350285E0
5.864108717E0;9.959878922E-1;3.174711466E0;8.882488251E0;9.485219149E0
5.874038440E0;9.481038451E-1;3.136404276E0;8.839392662E0;9.427130810E0
5.884053802E0;8.954314590E-1;3.126827478E0;8.930372238E0;9.504230421E0
5.894066483E0;9.289502501E-1;3.088520288E0;8.916007042E0;9.481407475E0
5.904152823E0;1.019929886E0;3.074155092E0;8.906430244E0;9.477087432E0
5.914072993E0;1.101332784E0;3.112462282E0;8.939949036E0;9.530112492E0
5.924241078E0;1.115697980E0;3.169923067E0;8.906430244E0;9.519332641E0
5.934246621E0;1.010353088E0;3.145981073E0;8.920795441E0;9.513075295E0
5.944131392E0;1.034295082E0;3.150769472E0;8.848969460E0;9.449940480E0
5.954231278E0;1.039083481E0;3.141192675E0;8.781931877E0;9.384514553E0
5.964226221E0;1.010353088E0;3.136404276E0;8.714894295E0;9.317039643E0
5.974123692E0;9.050082564E-1;3.093308687E0;8.676587105E0;9.255850170E0
5.984254928E0;8.810662031E-1;3.074155092E0;8.753201485E0;9.319079537E0
5.994192546E0;9.050082564E-1;3.055001259E0;8.896853447E0;9.450189093E0
6.004251355E0;9.241618514E-1;3.040636063E0;8.968679428E0;9.515080319E0
6.014207259E0;9.050082564E-1;3.040636063E0;9.078812599E0;9.617138130E0
6.024131211E0;9.241618514E-1;3.088520288E0;9.088389397E0;9.643228429E0
6.034128687E0;9.576807022E-1;3.117250681E0;8.906430244E0;9.484666775E0
6.044072925E0;9.911994934E-1;3.098097086E0;8.652645111E0;9.243860092E0
6.054274044E0;1.034295082E0;3.102885485E0;8.633491516E0;9.232271682E0
6.064188604E0;1.048660398E0;3.055001259E0;8.734047890E0;9.312159463E0
6.074068384E0;1.043871999E0;3.040636063E0;8.887276649E0;9.450863593E0
6.084231774E0;9.911994934E-1;3.021482468E0;8.925583839E0;9.475118976E0
6.094452469E0;9.289502501E-1;3.011905670E0;8.829815865E0;9.375509188E0
6.104275316E0;8.906430602E-1;3.026270866E0;8.710105896E0;9.263773806E0
6.114139240E0;9.241618514E-1;3.083731890E0;8.667010307E0;9.245568947E0
6.124259702E0;1.063025594E0;3.155557871E0;8.571242332E0;9.195312067E0
6.134132433E0;1.139639974E0;3.160346270E0;8.590395927E0;9.223961730E0
6.144152298E0;1.106121182E0;3.184288263E0;8.705317497E0;9.335188726E0
6.154085231E0;1.106121182E0;3.155557871E0;8.848969460E0;9.459667544E0
6.164107197E0;1.110909581E0;3.150769472E0;8.963891029E0;9.566232840E0
6.174033680E0;1.063025594E0;3.131615877E0;9.102754593E0;9.684894558E0
6.184054422E0;9.816226959E-1;3.102885485E0;9.117119789E0;9.680565825E0
6.194240293E0;9.959878922E-1;3.093308687E0;9.136273384E0;9.697012007E0
6.204210228E0;1.072602391E0;3.083731890E0;9.126696587E0;9.693114507E0
6.214402196E0;1.139639974E0;3.126827478E0;9.083600998E0;9.674070314E0
6.224479680E0;1.115697980E0;3.141192675E0;8.911218643E0;9.514288786E0
6.234372422E0;1.082179189E0;3.126827478E0;8.829815865E0;9.429411969E0
6.244266293E0;1.048660398E0;3.169923067E0;8.729259491E0;9.346019053E0
6.254187228E0;1.043871999E0;3.117250681E0;8.724471092E0;9.323267474E0
6.264420696E0;1.015141487E0;3.122039080E0;8.781931877E0;9.375498267E0
6.274366430E0;1.000776291E0;3.083731890E0;8.911218643E0;9.482656445E0
6.284346297E0;9.911994934E-1;3.055001259E0;8.997409821E0;9.553475420E0
6.294273730E0;9.672574997E-1;3.026270866E0;8.997409821E0;9.541870147E0
6.304306947E0;9.433154464E-1;3.078943491E0;8.973467827E0;9.533774798E0
6.314410555E0;9.002198577E-1;3.059789658E0;8.796297073E0;9.356684816E0
6.324506359E0;9.337386489E-1;3.045424461E0;8.662221909E0;9.229331851E0
6.334305261E0;9.768342972E-1;3.078943491E0;8.638279915E0;9.222471369E0
6.344147212E0;1.010353088E0;3.088520288E0;8.767566681E0;9.350400871E0
6.354168188E0;1.058237195E0;3.088520288E0;8.858546257E0;9.441009762E0
6.364084676E0;1.034295082E0;3.059789658E0;8.925583839E0;9.492003263E0
6.374020920E0;1.096544385E0;3.045424461E0;8.939949036E0;9.507876130E0
6.383979542E0;1.063025594E0;3.050212860E0;8.892065048E0;9.460583636E0
6.394088853E0;1.096544385E0;3.102885485E0;8.863334656E0;9.454576095E0
6.404139508E0;1.110909581E0;3.026270866E0;8.858546257E0;9.426891176E0
6.414216336E0;1.077390790E0;3.026270866E0;8.987833023E0;9.544643981E0
6.424186750E0;1.082179189E0;3.083731890E0;8.973467827E0;9.550059634E0
6.434130457E0;1.106121182E0;3.064578056E0;8.930372238E0;9.506139650E0
6.444196310E0;1.019929886E0;3.055001259E0;8.801085472E0;9.371893893E0
6.454142237E0;9.624691010E-1;3.040636063E0;8.844181061E0;9.401667569E0
6.464114700E0;9.337386489E-1;3.059789658E0;8.853757858E0;9.413990059E0
6.474029932E0;1.019929886E0;3.122039080E0;8.863334656E0;9.452305867E0
6.484012048E0;1.039083481E0;3.169923067E0;8.839392662E0;9.447908201E0
6.494031606E0;9.672574997E-1;3.160346270E0;8.877699852E0;9.472957842E0
6.504060385E0;9.145850539E-1;3.107673883E0;8.896853447E0;9.468268271E0
6.514009274E0;9.385270476E-1;3.050212860E0;8.968679428E0;9.519550525E0
6.524152719E0;1.130063176E0;3.035847664E0;9.030928612E0;9.594325688E0
6.534297441E0;1.115697980E0;3.021482468E0;9.026140213E0;9.583597729E0
6.544208302E0;1.048660398E0;2.978386879E0;8.930372238E0;9.472171100E0
6.554105233E0;9.672574997E-1;2.954444885E0;8.762778282E0;9.297882279E0
6.564145698E0;8.954314590E-1;2.935291290E0;8.676587105E0;9.203308983E0
6.574119931E0;9.145850539E-1;2.925714493E0;8.724471092E0;9.247305929E0
6.584110047E0;1.015141487E0;2.954444885E0;8.844181061E0;9.379701246E0
6.594194105E0;1.130063176E0;3.069366693E0;8.973467827E0;9.550977935E0
6.604424134E0;1.173158884E0;3.145981073E0;8.963891029E0;9.572086558E0
6.614461649E0;1.101332784E0;3.145981073E0;8.925583839E0;9.527653315E0
6.624290406E0;1.029506683E0;3.083731890E0;8.887276649E0;9.463243240E0
6.634196785E0;9.864110947E-1;3.078943491E0;8.829815865E0;9.403113743E0
6.644229974E0;9.337386489E-1;3.059789658E0;8.863334656E0;9.422997497E0
6.654115569E0;9.959878922E-1;3.031059265E0;8.944737434E0;9.496717323E0
6.664107366E0;1.015141487E0;3.035847664E0;8.925583839E0;9.482242886E0
6.674170765E0;9.672574997E-1;3.021482468E0;8.944737434E0;9.490693923E0
6.684308464E0;9.289502501E-1;3.007117271E0;8.916007042E0;9.455204092E0
6.694393314E0;9.768342972E-1;3.074155092E0;8.801085472E0;9.373566038E0
6.704259739E0;1.072602391E0;3.126827478E0;8.695740700E0;9.302872260E0
6.714129951E0;1.158793569E0;3.083731890E0;8.657433510E0;9.263010303E0
6.724136057E0;1.063025594E0;3.045424461E0;8.916007042E0;9.481551304E0
6.734470610E0;1.182735682E0;2.916137695E0;9.145850182E0;9.672088621E0
6.744374387E0;1.177947283E0;2.920926094E0;9.203310966E0;9.727296736E0
6.754231275E0;1.034295082E0;3.055001259E0;9.006986618E0;9.567058427E0
6.764132219E0;9.720458984E-1;3.150769472E0;8.825027466E0;9.420898644E0
6.774363691E0;9.241618514E-1;3.083731890E0;8.662221909E0;9.241080342E0
6.784189927E0;9.768342972E-1;3.045424461E0;8.700529099E0;9.269736889E0
6.794116045E0;1.010353088E0;3.045424461E0;8.877699852E0;9.439755197E0
6.804033104E0;1.091755986E0;3.002328873E0;9.026140213E0;9.574816810E0
6.814068134E0;1.130063176E0;3.035847664E0;9.016563416E0;9.580805271E0
6.824189649E0;1.015141487E0;3.007117271E0;8.935160637E0;9.482107473E0
6.834100406E0;9.816226959E-1;3.002328873E0;8.825027466E0;9.373295661E0
6.844173285E0;9.816226959E-1;3.011905670E0;8.686163902E0;9.245788350E0
6.854099724E0;1.063025594E0;2.997540474E0;8.652645111E0;9.218651730E0
6.864065944E0;1.086967587E0;2.973598480E0;8.734047890E0;9.290176478E0
6.874057054E0;1.134851575E0;3.016694069E0;8.825027466E0;9.395181796E0
6.884134609E0;1.173158884E0;3.083731890E0;8.863334656E0;9.457505239E0
6.894076886E0;1.221042871E0;3.098097086E0;8.872911453E0;9.477220526E0
6.904143025E0;1.163581967E0;3.083731890E0;9.040505409E0;9.622580912E0
6.914126594E0;1.110909581E0;3.011905670E0;9.141061783E0;9.688379967E0
6.924065379E0;1.024718285E0;3.069366693E0;9.097966194E0;9.656295787E0
6.934147271E0;8.714894056E-1;3.064578056E0;8.872911453E0;9.427602564E0
6.944141717E0;8.140285611E-1;3.122039080E0;8.662221909E0;9.243584743E0
6.954144440E0;9.241618514E-1;3.098097086E0;8.590395927E0;9.178626415E0
6.964079802E0;1.053448796E0;3.098097086E0;8.700529099E0;9.295545520E0
6.974241983E0;1.048660398E0;3.107673883E0;8.872911453E0;9.459697841E0
6.984180073E0;1.063025594E0;3.098097086E0;8.997409821E0;9.575051564E0
6.994137618E0;9.816226959E-1;3.055001259E0;8.844181061E0;9.408302421E0
7.004092391E0;8.619126081E-1;3.007117271E0;8.690952301E0;9.236790543E0
7.014086277E0;8.667010069E-1;2.992752075E0;8.781931877E0;9.318265027E0
7.024177720E0;1.015141487E0;3.016694069E0;8.892065048E0;9.444563313E0
7.034086942E0;1.144428372E0;2.968810081E0;9.074024200E0;9.615688472E0
7.044065053E0;1.264138460E0;2.916137695E0;9.136273384E0;9.673334299E0
7.054041108E0;1.134851575E0;2.925714493E0;9.112331390E0;9.637545162E0
7.064073136E0;9.289502501E-1;2.944868088E0;8.796297073E0;9.322555381E0
7.074042150E0;8.762778044E-1;2.935291290E0;8.609549522E0;9.138278871E0
7.084125157E0;1.000776291E0;2.935291290E0;8.643068314E0;9.182598653E0
7.094121160E0;1.072602391E0;3.002328873E0;8.901641846E0;9.455352035E0
7.104116662E0;1.173158884E0;3.093308687E0;9.035717010E0;9.622320006E0
7.114302913E0;1.383848548E0;3.050212860E0;8.949525833E0;9.555775632E0
7.124140538E0;1.379060149E0;3.055001259E0;8.920795441E0;9.529713053E0
7.134141351E0;1.221042871E0;3.083731890E0;8.829815865E0;9.432178765E0
7.144119757E0;1.110909581E0;3.069366693E0;8.834604263E0;9.418352536E0
7.154097960E0;1.120486379E0;3.088520288E0;8.906430244E0;9.493099968E0
7.164094562E0;1.139639974E0;3.059789658E0;9.026140213E0;9.598557140E0
7.174039363E0;1.244984865E0;3.031059265E0;9.260771751E0;9.823400685E0
7.184034763E0;1.192312479E0;3.007117271E0;9.093177795E0;9.651437497E0
7.194128463E0;1.312022567E0;2.916137695E0;8.815450668E0;9.377496082E0
7.204088813E0;1.268926859E0;2.906560898E0;8.815450668E0;9.368588053E0
7.214158488E0;9.385270476E-1;2.997540474E0;8.815450668E0;9.358325299E0
7.224100326E0;9.624691010E-1;3.098097086E0;8.825027466E0;9.402428521E0
7.234084245E0;1.053448796E0;3.102885485E0;8.772355080E0;9.364393538E0
7.244195204E0;1.197100878E0;3.045424461E0;8.700529099E0;9.295529423E0
7.254134684E0;1.149216771E0;2.987963676E0;8.714894295E0;9.284288270E0
7.264118924E0;1.024718285E0;2.997540474E0;8.791508675E0;9.344833933E0
7.274058544E0;1.024718285E0;3.007117271E0;8.834604263E0;9.388452180E0
7.284092354E0;9.241618514E-1;3.045424461E0;8.729259491E0;9.291321571E0
7.294041259E0;7.852981687E-1;3.026270866E0;8.542511940E0;9.096676251E0
7.304100711E0;8.236053586E-1;2.954444885E0;8.532935143E0;9.067417081E0
7.314133437E0;9.337386489E-1;2.877830505E0;8.753201485E0;9.261334273E0
7.324200300E0;1.091755986E0;2.987963676E0;8.906430244E0;9.457502723E0
7.334191232E0;1.221042871E0;2.978386879E0;8.997409821E0;9.555894389E0
7.344249198E0;1.283292055E0;2.983175278E0;9.030928612E0;9.597074806E0
7.354229181E0;1.206677675E0;3.040636063E0;9.002198219E0;9.578158041E0
7.364151672E0;1.115697980E0;3.122039080E0;8.925583839E0;9.521447205E0
7.374094918E0;1.072602391E0;3.141192675E0;8.935160637E0;9.531771237E0
7.384094541E0;1.177947283E0;3.093308687E0;8.839392662E0;9.438801887E0
7.394129352E0;1.192312479E0;3.059789658E0;8.681375504E0;9.281713335E0
7.404251758E0;1.039083481E0;3.026270866E0;8.743624687E0;9.310691838E0
7.414143961E0;9.816226959E-1;2.930502892E0;8.858546257E0;9.382178431E0
7.424091062E0;1.110909581E0;2.882618904E0;9.054870605E0;9.567355618E0
7.434158113E0;1.206677675E0;2.992752075E0;9.255983353E0;9.802339712E0
7.444073638E0;1.340752959E0;3.050212860E0;9.150638580E0;9.738357326E0
7.454053901E0;1.268926859E0;3.145981073E0;8.935160637E0;9.557429984E0
7.464261032E0;1.106121182E0;3.145981073E0;8.710105896E0;9.326663160E0
7.474377598E0;9.385270476E-1;3.112462282E0;8.757989883E0;9.341875683E0
7.484282881E0;8.571242094E-1;3.112462282E0;8.930372238E0;9.495979764E0
7.494193522E0;9.289502501E-1;3.055001259E0;9.054870605E0;9.601388594E0
7.504160343E0;1.058237195E0;2.959233284E0;9.011775017E0;9.544056608E0
7.514110753E0;1.106121182E0;2.978386879E0;8.805873871E0;9.361501327E0
7.524074458E0;1.149216771E0;2.944868088E0;8.724471092E0;9.279512007E0
7.534190311E0;1.278503656E0;2.863465309E0;8.700529099E0;9.248416717E0
7.544089737E0;1.364694953E0;2.853888512E0;8.815450668E0;9.365855136E0
7.554139450E0;1.249773264E0;2.954444885E0;8.920795441E0;9.480045838E0
7.564280807E0;1.163581967E0;3.031059265E0;8.762778282E0;9.344919822E0
7.574248485E0;1.034295082E0;3.107673883E0;8.599972725E0;9.202550416E0
7.584144824E0;9.385270476E-1;3.055001259E0;8.566453934E0;9.143194120E0
7.594085994E0;1.015141487E0;3.002328873E0;8.556877136E0;9.124945875E0
7.604290079E0;1.082179189E0;2.959233284E0;8.753201485E0;9.303048407E0
7.614170121E0;1.216254473E0;2.930502892E0;9.030928612E0;9.572084085E0
7.624177142E0;1.225831270E0;2.916137695E0;9.375694275E0;9.894956518E0
7.634263653E0;1.345541358E0;2.911349297E0;9.179368973E0;9.723541074E0
7.644212408E0;1.589749932E0;2.849100113E0;9.136273384E0;9.701348754E0
7.654151786E0;1.412579060E0;2.997540474E0;9.255983353E0;9.831269314E0
7.664266475E0;1.173158884E0;3.203441858E0;9.222464561E0;9.833218908E0
7.674138319E0;1.197100878E0;3.246537447E0;9.040505409E0;9.680072002E0
7.684215241E0;1.374271750E0;3.198653460E0;9.021351814E0;9.669787762E0
7.694197202E0;1.264138460E0;3.122039080E0;8.844181061E0;9.463863519E0
7.704225683E0;1.158793569E0;3.021482468E0;8.652645111E0;9.237988215E0
7.714250923E0;1.139639974E0;2.954444885E0;8.738836288E0;9.294879425E0
7.724208043E0;1.197100878E0;2.968810081E0;8.825027466E0;9.387651122E0
7.734234603E0;1.283292055E0;2.901772499E0;8.772355080E0;9.328522701E0
7.744209883E0;1.187524080E0;2.949656487E0;8.781931877E0;9.339861580E0
7.754162523E0;1.082179189E0;2.896984100E0;8.734047890E0;9.265377554E0
7.764086843E0;1.005564690E0;2.925714493E0;8.748413086E0;9.279315555E0
7.774060503E0;1.072602391E0;2.959233284E0;8.633491516E0;9.189380462E0
7.784098333E0;1.197100878E0;3.007117271E0;7.891288757E0;8.529258060E0
7.794030248E0;1.426944256E0;3.193865061E0;7.431602001E0;8.213747758E0
7.804062706E0;1.254561663E0;3.213018656E0;8.992621422E0;9.631440904E0
7.814140435E0;1.321599364E0;3.002328873E0;9.265560150E0;9.829100083E0
7.824280299E0;1.264138460E0;2.959233284E0;9.193734169E0;9.740629120E0
7.834125231E0;1.173158884E0;2.925714493E0;9.461885452E0;9.973133077E0
7.844200197E0;1.010353088E0;2.849100113E0;9.730035782E0;1.018880666E1
7.854199180E0;8.762778044E-1;2.858676910E0;9.346963882E0;9.813543208E0
7.864285172E0;1.024718285E0;3.026270866E0;9.155426979E0;9.696917350E0
7.874174668E0;1.096544385E0;3.098097086E0;9.232041359E0;9.799551153E0
7.884139916E0;1.106121182E0;3.145981073E0;9.308655739E0;9.887960995E0
7.894160040E0;9.768342972E-1;3.031059265E0;8.532935143E0;9.107826725E0
7.904218102E0;1.230619669E0;2.892195702E0;7.484274387E0;8.117486301E0
7.914178133E0;1.000776291E0;3.031059265E0;7.565677166E0;8.211476386E0
7.924160148E0;9.481038451E-1;3.222595453E0;8.274360657E0;8.930233291E0
