"Time (s)";"Acceleration x (m/s^2)";"Acceleration y (m/s^2)";"Acceleration z (m/s^2)";"Absolute acceleration (m/s^2)"
0.000000000E0;1.134851575E0;6.560112476E0;6.033388138E0;8.984694554E0
0.000000000E0;9.816226959E-1;6.454767704E0;6.248866558E0;9.037474342E0
1.156268300E-2;9.816226959E-1;6.325480938E0;6.584054470E0;9.182868042E0
2.448349500E-2;9.481038451E-1;6.268020153E0;6.799532890E0;9.296269417E0
3.608040100E-2;9.050082564E-1;6.239289761E0;6.766014099E0;9.248065930E0
4.670185400E-2;8.667010069E-1;6.277596951E0;6.866570473E0;9.343938365E0
5.710108100E-2;7.326257229E-1;6.253654957E0;6.914454460E0;9.351717556E0
6.723119400E-2;4.548983276E-1;6.186617374E0;7.110779285E0;9.436331335E0
7.729175100E-2;3.639186621E-1;6.181828976E0;7.450755596E0;9.688199277E0
8.738152900E-2;3.734954596E-1;6.244078159E0;7.584830761E0;9.831463197E0
9.735141800E-2;4.644751251E-1;6.263231754E0;7.445967197E0;9.740956660E0
1.073978630E-1;3.912125587E0;5.674258232E0;7.699752808E0;1.033383406E1
1.174520850E-1;3.825934410E0;6.038176537E0;7.244854450E0;1.017768471E1
1.274891960E-1;1.671152830E0;6.799532890E0;6.694188118E0;9.687030188E0
1.375197520E-1;6.177040339E-1;6.689399719E0;6.291962147E0;9.204260673E0
1.476190300E-1;3.974374831E-1;6.722918510E0;5.808333397E0;8.893386683E0
1.577186690E-1;5.410895944E-1;6.603208065E0;5.908889771E0;8.877506013E0
1.676849880E-1;6.943184733E-1;6.497863293E0;6.339846134E0;9.104831383E0
1.776536480E-1;7.422025204E-1;6.540958881E0;6.833051682E0;9.488182279E0
1.877339780E-1;6.607996821E-1;6.507440090E0;7.484274387E0;9.939708037E0
1.978111430E-1;5.410895944E-1;6.368576527E0;7.795520782E0;1.008075836E1
2.078317250E-1;4.405331016E-1;6.200982571E0;8.054094315E0;1.017421690E1
2.177435160E-1;2.394201756E-1;6.239289761E0;8.216899872E0;1.032005340E1
2.277304120E-1;2.729389966E-1;6.244078159E0;8.078036308E0;1.021360261E1
2.377758600E-1;3.734954596E-1;6.224924564E0;7.776367188E0;9.968002374E0
2.478220840E-1;3.639186621E-1;6.114790916E0;7.671022415E0;9.816704622E0
2.577901960E-1;2.729389966E-1;6.062118530E0;7.685387611E0;9.792290820E0
2.677107520E-1;3.447650373E-1;6.129156113E0;7.675810814E0;9.828707404E0
2.776155300E-1;3.687070608E-1;6.004657745E0;7.527369976E0;9.636034365E0
2.876544190E-1;3.256114423E-1;6.564900875E0;6.780379295E0;9.443383382E0
2.975648630E-1;5.937620401E-1;6.947973251E0;6.368576527E0;9.443815576E0
3.075185850E-1;1.130063176E0;6.852205276E0;6.684611320E0;9.639179863E0
3.176114460E-1;1.589749932E0;6.799532890E0;7.714118004E0;1.040521835E1
3.277738770E-1;1.623268723E0;6.794744492E0;8.475474358E0;1.098349761E1
3.377500920E-1;1.498770237E0;6.641515732E0;8.259995461E0;1.070437146E1
3.478472000E-1;1.666364431E0;6.373364925E0;7.733271599E0;1.015874207E1
3.576897540E-1;1.685518026E0;6.124367714E0;7.115567684E0;9.538351764E0
3.676650310E-1;1.388636947E0;5.985504150E0;6.737283707E0;9.118418956E0
3.776616690E-1;1.134851575E0;5.947196960E0;6.344634533E0;8.769916028E0
3.878299880E-1;5.698199868E-1;6.861782074E0;5.525817394E0;8.828556276E0
3.976541480E-1;5.027823448E-1;6.919242859E0;5.698200226E0;8.977649895E0
4.075612280E-1;4.165911078E-1;6.770802498E0;5.439626217E0;8.695219836E0
4.175662680E-1;5.793967843E-1;6.378153324E0;5.272032261E0;8.295231439E0
4.274817880E-1;3.160346150E-1;7.240066051E0;4.132391930E0;8.342367612E0
4.375015480E-1;1.340752989E-1;7.498639584E0;4.050989151E0;8.523971193E0
4.475259280E-1;9.576806426E-2;7.134721279E0;4.534617901E0;8.454358566E0
4.575541180E-1;1.580173075E-1;7.168240070E0;5.008669853E0;8.746165381E0
4.674607130E-1;4.692635238E-1;6.871358871E0;6.291962147E0;9.328695978E0
4.775505100E-1;8.092401624E-1;6.933608055E0;7.723694801E0;1.041082378E1
4.876424090E-1;8.427590132E-1;7.287950039E0;7.939172745E0;1.080994553E1
4.977343580E-1;7.086837292E-1;7.790732384E0;7.144298077E0;1.059427858E1
5.077583330E-1;8.523358107E-1;7.493851185E0;6.722918510E0;1.010355953E1
5.177818200E-1;7.230489254E-1;7.311892033E0;6.555324078E0;9.846767927E0
5.275700640E-1;3.112462163E-1;7.163451672E0;6.641515732E0;9.773517549E0
5.374466860E-1;1.340752989E-1;7.077260017E0;6.694188118E0;9.742573587E0
5.474049970E-1;5.746084079E-2;6.976703644E0;6.933608055E0;9.836290772E0
5.573756520E-1;1.292868853E-1;7.163451672E0;6.924031258E0;9.963632059E0
5.673749800E-1;3.256114423E-1;7.201758862E0;6.703764915E0;9.844379998E0
5.773846440E-1;3.016694188E-1;7.105990410E0;6.598419666E0;9.701816646E0
5.873839760E-1;1.675941199E-1;7.163451672E0;6.512228489E0;9.682574427E0
5.973671420E-1;1.771709323E-1;7.192182064E0;6.646304131E0;9.794500037E0
6.073997250E-1;3.878606856E-1;7.110779285E0;7.005434036E0;9.989480667E0
6.176115160E-1;7.278373241E-1;7.450755596E0;7.196970463E0;1.038459869E1
6.275769120E-1;7.613561153E-1;7.383718014E0;7.211335659E0;1.034902492E1
6.377261100E-1;5.363011956E-1;7.383718014E0;6.986280441E0;1.017914658E1
6.475277090E-1;4.261679053E-1;7.335834026E0;6.569689274E0;9.856819827E0
6.574925080E-1;3.543418646E-1;7.287950039E0;6.301538944E0;9.641014832E0
6.674494080E-1;4.740519226E-1;7.235277653E0;6.076483727E0;9.460318304E0
6.774603580E-1;7.086837292E-1;6.818686485E0;6.440402508E0;9.406141742E0
6.875018330E-1;8.092401624E-1;6.809109688E0;6.612784863E0;9.526162292E0
6.975045700E-1;8.188169599E-1;7.220912457E0;6.047753334E0;9.454488791E0
7.075334390E-1;4.644751251E-1;7.924807549E0;5.099649429E0;9.435292053E0
7.174733730E-1;2.394201756E-1;8.212111473E0;4.194641590E0;9.224484535E0
7.274103400E-1;1.723825186E-1;7.934384346E0;3.849876404E0;8.820755013E0
7.373763240E-1;1.915361285E-1;7.862558365E0;3.964797974E0;8.807731439E0
7.473783160E-1;1.244984865E-1;7.824251175E0;4.232948780E0;8.896755684E0
7.574343120E-1;1.867477298E-1;7.891288757E0;4.400542736E0;9.037261164E0
7.674783100E-1;1.628057212E-1;7.953537941E0;4.754884720E0;9.267912396E0
7.774318090E-1;2.585737705E-1;8.101978302E0;5.032611847E0;9.541283708E0
7.875780580E-1;2.298433632E-1;8.178592682E0;5.147533417E0;9.666400907E0
7.975331830E-1;2.968810201E-1;8.236053467E0;4.836287498E0;9.555647117E0
8.074547450E-1;5.123591423E-1;7.896077156E0;4.616020679E0;9.160687379E0
8.174750260E-1;6.129156351E-1;7.809885979E0;4.558559895E0;9.063688702E0
8.274971670E-1;5.841852427E-1;7.776367188E0;4.486733913E0;8.996885030E0
8.375907370E-1;4.836287498E-1;7.766790390E0;4.486733913E0;8.982633853E0
8.474755220E-1;3.639186621E-1;7.809885979E0;4.491522312E0;9.016680568E0
8.574639150E-1;3.495534360E-1;7.800309181E0;4.381389141E0;8.953411737E0
8.676246110E-1;3.830722570E-1;7.809885979E0;4.295197964E0;8.921310941E0
8.775234590E-1;4.022258818E-1;7.785943985E0;4.367023945E0;8.936084575E0
8.875253830E-1;8.236053586E-1;7.637503624E0;4.592078686E0;8.949691282E0
8.974408450E-1;3.222595453E0;7.584830761E0;5.123591423E0;9.703915096E0
9.074650760E-1;2.791639090E0;6.943184853E0;5.918466568E0;9.540928216E0
9.176871920E-1;5.650315881E-1;7.891288757E0;8.082824707E0;1.131033838E1
9.275327500E-1;-5.123591423E-1;8.149862289E0;8.465897560E0;1.176240574E1
9.374730290E-1;-2.777273953E-1;7.800309181E0;8.552088737E0;1.157843589E1
9.475661680E-1;4.453215301E-1;7.292738438E0;9.174580574E0;1.172839605E1
9.574787380E-1;7.038952708E-1;7.460332394E0;9.667786598E0;1.223184883E1
9.675600230E-1;7.038952708E-1;7.647080421E0;9.179368973E0;1.196804588E1
9.774761650E-1;5.889736414E-1;7.565677166E0;8.183381081E0;1.116038023E1
9.875737360E-1;4.644751251E-1;7.503427982E0;7.211335659E0;1.041731878E1
9.977730220E-1;4.979939461E-1;7.503427982E0;6.454767704E0;9.910270207E0
1.007716665E0;5.746083856E-1;7.541735172E0;5.669469833E0;9.452556924E0
1.017540486E0;9.385270476E-1;7.685387611E0;5.200206280E0;9.326744400E0
1.027458897E0;8.667010069E-1;7.675810814E0;4.812345505E0;9.100984098E0
1.037392602E0;5.123591423E-1;7.800309181E0;4.635174274E0;9.088023755E0
1.047434955E0;3.399766386E-1;7.982268333E0;4.510675907E0;9.174878146E0
1.057422631E0;6.224924326E-2;8.034940720E0;4.467580318E0;9.193662015E0
1.067409469E0;-1.915361285E-1;8.073247910E0;4.491522312E0;9.240551422E0
1.077440388E0;-2.346317619E-1;8.111555099E0;4.654327869E0;9.354953026E0
1.087557848E0;-4.788403213E-2;8.154650688E0;4.520252705E0;9.323803153E0
1.097635578E0;1.915361360E-2;8.130708694E0;4.443638325E0;9.265781796E0
1.107681443E0;4.118026793E-1;8.125920296E0;4.539406300E0;9.316993702E0
1.117673375E0;1.786074519E0;7.958326340E0;4.783615112E0;9.455580038E0
1.127572341E0;1.446097851E0;7.953537941E0;4.826710701E0;9.415258943E0
1.137540824E0;1.240196466E0;8.140285492E0;4.764461517E0;9.513276445E0
1.147510566E0;1.149216771E0;8.097189903E0;4.850652695E0;9.508628454E0
1.157444937E0;1.182735682E0;8.145073891E0;4.984727859E0;9.622297242E0
1.167439622E0;1.273715258E0;8.312667847E0;4.936843872E0;9.751678046E0
1.177426465E0;1.503558636E0;8.298302650E0;4.707000732E0;9.658072859E0
1.187412386E0;1.647210717E0;8.288725853E0;4.596867085E0;9.620159375E0
1.197420347E0;1.628057122E0;8.437167168E0;4.472368717E0;9.687024401E0
1.207479827E0;1.431732655E0;8.441955566E0;4.247313976E0;9.558041023E0
1.217486067E0;9.959878922E-1;8.451532364E0;4.017470360E0;9.410656686E0
1.227455687E0;4.022258818E-1;8.547300339E0;3.936067581E0;9.418638795E0
1.237416997E0;-1.915361360E-2;8.561665535E0;3.912125587E0;9.413140295E0
1.247516652E0;-3.687070608E-1;8.609549522E0;3.926490784E0;9.469826701E0
1.257513480E0;-5.746083856E-1;8.719682693E0;3.993528366E0;9.607877491E0
1.267594894E0;-5.315127969E-1;8.633491516E0;4.113238335E0;9.578017081E0
1.277543601E0;-2.825157940E-1;8.676587105E0;4.357447147E0;9.713409525E0
1.287633954E0;4.213795066E-1;8.820239067E0;4.199429989E0;9.778005426E0
1.297559131E0;1.340752959E0;8.877699852E0;3.849876404E0;9.768967268E0
1.307527719E0;1.675941229E0;8.762778282E0;3.404554844E0;9.549139014E0
1.317578013E0;1.795651317E0;8.523358345E0;3.222595453E0;9.287471270E0
1.327455660E0;1.963245392E0;8.494627953E0;3.174711466E0;9.278568285E0
1.337492984E0;2.044648170E0;8.623914719E0;3.174711466E0;9.414418947E0
1.347807146E0;2.097320795E0;8.748413086E0;3.581725836E0;9.683090726E0
1.357663227E0;1.958456993E0;8.748413086E0;4.156333923E0;9.881568549E0
1.367530767E0;2.154781580E0;8.858546257E0;4.735731125E0;1.027346459E1
1.377508537E0;2.671929121E0;8.848969460E0;5.463568211E0;1.073750638E1
1.387459422E0;2.853888512E0;8.686163902E0;5.789179802E0;1.082167851E1
1.397400865E0;2.863465309E0;8.485051155E0;5.774814606E0;1.065570319E1
1.407393086E0;2.978386879E0;8.427590370E0;5.755661011E0;1.063121355E1
1.417600697E0;3.150769472E0;8.202534676E0;5.645527840E0;1.044418058E1
1.427511002E0;3.031059265E0;8.063671112E0;5.114014626E0;1.001814642E1
1.437468155E0;2.705447912E0;7.900865555E0;4.462791920E0;9.468877264E0
1.447465731E0;2.221819162E0;8.250418663E0;3.308786631E0;9.162639220E0
1.457452019E0;1.517923832E0;8.791508675E0;2.015917778E0;9.146509827E0
1.467538663E0;1.000776291E0;9.184157372E0;1.340752989E-1;9.239495441E0
1.477452485E0;3.543418646E-1;9.418789864E0;-1.896207690E0;9.614299988E0
1.487457396E0;-7.182605267E-1;9.653421402E0;-3.131615877E0;1.017405823E1
1.497674352E0;-1.417367458E0;9.734824181E0;-4.817133904E0;1.095356158E1
1.507856330E0;-3.878606856E-1;9.165003777E0;-5.770026207E0;1.083701677E1
1.517696319E0;1.403002143E0;9.050082207E0;-5.640739441E0;1.075594461E1
1.527529813E0;2.528276920E0;9.284713745E0;-4.472368717E0;1.061132298E1
1.537529560E0;3.150769472E0;9.337387085E0;-2.355894566E0;1.013234351E1
1.547521434E0;2.643198729E0;9.457097054E0;1.723825186E-1;9.821043729E0
1.557456371E0;1.829170108E0;9.581595421E0;2.394201756E0;1.004415433E1
1.567515339E0;1.393425345E0;9.710882187E0;4.161122322E0;1.065635050E1
1.577443823E0;1.556231141E0;9.562441826E0;5.032611847E0;1.091738664E1
1.587569565E0;1.872265697E0;9.591172218E0;4.582501888E0;1.079329824E1
1.597538436E0;2.092532396E0;9.519346237E0;3.351882458E0;1.030687929E1
1.607470872E0;2.015917778E0;9.423578262E0;1.915361404E0;9.825291907E0
1.617436090E0;2.102109194E0;9.188945770E0;5.746083856E-1;9.443821378E0
1.627408699E0;1.900996208E0;9.342175484E0;-5.458779931E-1;9.549241443E0
1.637770503E0;1.838746905E0;9.323021889E0;-1.647210717E0;9.644326336E0
1.647577905E0;1.661576033E0;9.323021889E0;-1.637633920E0;9.610484738E0
1.657498606E0;1.527500629E0;9.490615845E0;-7.757213712E-1;9.644002848E0
1.667478457E0;1.604115129E0;9.543288231E0;3.303998411E-1;9.682804328E0
1.677619882E0;1.604115129E0;9.504981041E0;1.187524080E0;9.712263556E0
1.687488095E0;1.489193439E0;9.504981041E0;1.575384736E0;9.749061429E0
1.697421701E0;1.431732655E0;9.500192642E0;1.613691926E0;9.742049079E0
1.707437504E0;1.594538331E0;9.514557838E0;1.388636947E0;9.746675121E0
1.717421406E0;1.675941229E0;9.500192642E0;1.134851575E0;9.713409666E0
1.727389857E0;1.719036818E0;9.442731857E0;1.053448796E0;9.655569733E0
1.737408082E0;1.833958507E0;9.442731857E0;1.072602391E0;9.678794585E0
1.747441695E0;1.977610588E0;9.385271072E0;1.053448796E0;9.649041979E0
1.757423001E0;1.819593310E0;9.509769440E0;1.168370485E0;9.752523991E0
1.767400154E0;1.661576033E0;9.504981041E0;1.187524080E0;9.721919201E0
1.777387731E0;1.647210717E0;9.691728592E0;1.134851575E0;9.895998906E0
1.787357519E0;1.364694953E0;9.653421402E0;1.795651317E0;9.913389972E0
1.797371413E0;1.479616642E0;9.691728592E0;1.934514999E0;9.993058430E0
1.807351360E0;1.857900500E0;9.706093788E0;6.895300746E-1;9.906336488E0
1.817372834E0;1.570596337E0;9.145850182E0;6.033388376E-1;9.299320736E0
1.827409571E0;8.667010069E-1;9.174580574E0;3.495534360E-1;9.222054378E0
1.838129439E0;7.278373241E-1;9.208099365E0;3.256114423E-1;9.242557217E0
1.847797373E0;8.906430602E-1;9.112331390E0;2.681505978E-1;9.159679753E0
1.857622840E0;1.077390790E0;9.059659004E0;5.746084079E-2;9.123677654E0
1.867543574E0;1.187524080E0;9.002198219E0;-1.340752989E-1;9.081176268E0
1.877488941E0;1.312022567E0;8.973467827E0;-2.873041928E-1;9.073426682E0
1.887436124E0;1.465251446E0;8.911218643E0;-3.639186621E-1;9.038208689E0
1.897394716E0;1.589749932E0;8.757989883E0;-6.320692301E-1;8.923519662E0
1.907378012E0;1.690306425E0;8.614337921E0;-8.810662031E-1;8.822711107E0
1.917369660E0;1.613691926E0;8.576030731E0;-6.129156351E-1;8.748026652E0
1.927359984E0;1.412579060E0;8.456320763E0;-3.734954596E-1;8.581622183E0
1.937496646E0;1.249773264E0;8.336610794E0;-8.140286058E-2;8.430162464E0
1.947490477E0;1.110909581E0;8.360552788E0;4.357447028E-1;8.445284866E0
1.957501892E0;1.086967587E0;8.307879448E0;7.996633649E-1;8.416758340E0
1.967460100E0;1.091755986E0;8.327033043E0;7.182605267E-1;8.428956556E0
1.977644704E0;1.321599364E0;8.384494781E0;1.532289088E-1;8.489396723E0
1.987664006E0;1.292868972E0;8.288725853E0;-4.357447028E-1;8.400259513E0
1.997557657E0;1.288080573E0;8.154650688E0;-5.506663918E-1;8.274098917E0
2.007446482E0;1.546654344E0;7.891288757E0;-6.560112834E-1;8.068142829E0
2.017445895E0;1.843535304E0;7.570465565E0;-8.236053586E-1;7.835106704E0
2.027432601E0;2.140416384E0;7.225700855E0;-5.219359994E-1;7.554108308E0
2.037404954E0;1.891419291E0;6.928819656E0;2.489969730E-1;7.186654873E0
2.047445631E0;1.307234168E0;6.497863293E0;8.619126081E-1;6.683859804E0
2.057417969E0;9.145850539E-1;6.110002518E0;6.368576288E-1;6.210811881E0
2.067453638E0;1.043871999E0;6.205770969E0;-2.537853718E-1;6.298068679E0
2.077420473E0;1.867477298E0;6.569689274E0;-1.671152830E0;7.031432315E0
2.087375390E0;2.087743998E0;7.177816868E0;-2.188300371E0;7.788991495E0
2.097391849E0;2.111685991E0;7.575253963E0;-1.565807939E0;8.018444041E0
2.107360078E0;2.082955360E0;8.207323074E0;-1.086967587E0;8.536999099E0
2.117435193E0;1.972822189E0;8.690952301E0;-9.624691010E-1;8.963873385E0
2.127458250E0;1.877054095E0;9.174580574E0;-9.385270476E-1;9.411540459E0
2.137402779E0;1.872265697E0;9.586383820E0;-7.852981687E-1;9.799021726E0
2.147367043E0;2.049436569E0;9.667786598E0;-8.619126081E-1;9.920140186E0
2.157453675E0;2.111685991E0;9.648633003E0;-1.091755986E0;9.937165979E0
2.167480491E0;2.269703150E0;9.605537415E0;-7.613561153E-1;9.899371927E0
2.177459399E0;2.331952572E0;9.595960617E0;-9.145850539E-1;9.917506178E0
2.187612853E0;2.643198729E0;9.634267807E0;-1.613691926E0;1.011976370E1
2.197483080E0;2.513911724E0;9.629479408E0;-1.838746905E0;1.012065294E1
2.207521694E0;2.255337954E0;9.658209801E0;-1.594538331E0;1.004540285E1
2.217496501E0;2.035071373E0;9.576807022E0;-1.302445769E0;9.876897955E0
2.227428404E0;2.264914751E0;9.758766174E0;-1.192312479E0;1.008885351E1
2.237431856E0;2.715024710E0;9.983820915E0;-1.570596337E0;1.046493249E1
2.247456582E0;2.643198729E0;1.011310768E1;-1.656787634E0;1.058330722E1
2.257417945E0;2.446874142E0;1.055364132E1;-1.268926859E0;1.090764473E1
2.267438626E0;2.557007313E0;1.110430717E1;-8.667010069E-1;1.142782109E1
2.277423467E0;2.930502892E0;1.144428444E1;-1.776497602E0;1.194635665E1
2.287576887E0;3.102885485E0;1.190875912E1;-3.174711466E0;1.270925784E1
2.297508597E0;3.189076662E0;1.244984913E1;-3.021482468E0;1.320220851E1
2.307486952E0;2.767697096E0;1.307712936E1;-2.341529369E0;1.357034338E1
2.317419130E0;2.595314741E0;1.336443424E1;-1.814804912E0;1.373452868E1
2.327433719E0;2.327163935E0;1.366610336E1;-1.752555609E0;1.397317159E1
2.337449513E0;2.542642117E0;1.428380775E1;-2.154781580E0;1.466749047E1
2.347598410E0;3.150769472E0;1.479616642E1;-2.576161146E0;1.534569957E1
2.357538859E0;3.600879431E0;1.556231117E1;-2.346317768E0;1.614487748E1
2.367549083E0;3.763684988E0;1.646253014E1;-2.461239338E0;1.706569431E1
2.377533695E0;3.299209833E0;1.733402061E1;-3.811569214E0;1.805217760E1
2.387528501E0;3.418920040E0;1.876096535E1;-4.347870350E0;1.955931521E1
2.397451904E0;3.849876404E0;2.030761909E1;-4.204218388E0;2.109256727E1
2.407427106E0;4.165910721E0;2.164358330E1;-3.337517262E0;2.229211815E1
2.417440207E0;4.515464306E0;2.169625664E1;-3.213018656E0;2.239286625E1
2.427387757E0;3.098097086E0;2.065238380E1;-5.487510204E0;2.159240447E1
2.437360032E0;3.347094059E0;2.020706177E1;-6.545747280E0;2.150291123E1
2.447376670E0;3.629609823E0;2.013044739E1;-5.477933407E0;2.117585261E1
2.457384489E0;5.463568211E0;1.995327759E1;-6.382941723E0;2.165007642E1
2.467383898E0;6.737283707E0;1.953189659E1;-7.541735172E0;2.199462993E1
2.477409603E0;8.216899872E0;1.867477417E1;-9.931148529E0;2.269123939E1
2.487469455E0;9.667786598E0;1.853112030E1;-9.021351814E0;2.276517748E1
2.497411881E0;6.823474884E0;1.936430359E1;-5.650316238E0;2.129465042E1
2.507429594E0;5.032611847E0;1.954147339E1;-3.160346270E0;2.042508636E1
2.517370451E0;3.960009575E0;1.857900429E1;-2.011129409E-1;1.899740831E1
2.527386879E0;4.932055473E0;1.704192734E1;-2.011129409E-1;1.774240415E1
2.537708093E0;2.667140722E0;1.425028896E1;2.111685991E0;1.465071988E1
2.547629700E0;1.000776291E0;1.042435455E1;6.847416878E0;1.251222758E1
2.557514504E0;1.532289088E-1;6.148310184E0;9.586383820E0;1.138964231E1
2.567413406E0;-6.368576288E-1;2.207453966E0;9.380482674E0;9.657737615E0
2.577409857E0;-3.011905670E0;-1.503558636E0;1.131020927E1;1.180055499E1
2.587381582E0;-3.691859007E0;-3.495534420E0;1.371398735E1;1.462607373E1
2.597473945E0;-2.705447912E0;-4.778826714E0;1.115219116E1;1.243092920E1
2.607543126E0;1.407790542E0;-4.563348293E0;3.782838583E-1;4.790524035E0
2.617757717E0;6.009446144E0;-2.226607561E0;-2.877830505E0;7.025178475E0
2.627705012E0;4.692635536E0;-1.345541358E0;-5.889736414E-1;4.917133288E0
2.637654660E0;2.126051188E0;-1.173158884E0;-1.077390790E0;2.656532765E0
2.647590484E0;6.703764945E-2;-1.187524080E0;-1.872265697E0;2.218126761E0
2.657540396E0;-1.254561663E0;-1.187524080E0;-5.363011956E-1;1.808799983E0
2.667631352E0;-1.508347034E0;-1.058237195E0;-3.734954596E-1;1.880020105E0
2.677567830E0;-1.101332754E-1;-6.703764796E-1;-1.225831270E0;1.401497865E0
2.687484569E0;4.548983276E-1;-3.303998411E-1;-8.331822157E-1;1.005131408E0
2.697464438E0;1.244984865E-1;-4.309563041E-1;1.101332754E-1;4.619010148E-1
2.707641373E0;-5.267243981E-1;-5.027823448E-1;1.101332754E-1;7.364496019E-1
2.717526340E0;-9.576807022E-1;-5.602431893E-1;-2.106897533E-1;1.129342699E0
2.727538324E0;-1.403002143E0;-5.123591423E-1;-7.661445439E-2;1.495592417E0
2.737442816E0;-1.455674648E0;-2.585737705E-1;-5.315127969E-1;1.571099911E0
2.747556562E0;-1.388636947E0;1.244984865E-1;-1.120486379E0;1.788659321E0
2.757531435E0;-9.193734527E-1;7.134721279E-1;-9.528923035E-1;1.504092339E0
2.767593871E0;-2.394201756E-1;1.096544385E0;-6.751648784E-1;1.309801215E0
2.777491589E0;-5.267243832E-2;1.173158884E0;-7.757213712E-1;1.407416001E0
2.787538448E0;2.154781520E-1;9.768342972E-1;-6.512228847E-1;1.193619422E0
2.797716378E0;4.453215301E-1;6.895300746E-1;-4.932055473E-1;9.576088454E-1
2.807627343E0;6.847416759E-1;3.974374831E-1;-5.985504389E-1;9.925171754E-1
2.817575325E0;4.405331016E-1;2.968810201E-1;-8.954314590E-1;1.041155729E0
2.827688816E0;-2.202665508E-1;4.548983276E-1;-5.602431893E-1;7.545344744E-1
2.837561062E0;-4.740519226E-1;6.224924326E-1;8.619125932E-2;7.871791328E-1
2.847548185E0;-6.320692301E-1;7.374141216E-1;5.698199868E-1;1.126048807E0
2.857476746E0;-8.188169599E-1;7.086837292E-1;3.399766386E-1;1.135023329E0
2.867506027E0;-8.427590132E-1;6.081272364E-1;1.867477298E-1;1.055905396E0
2.877515667E0;-8.331822157E-1;8.858546019E-1;3.303998411E-1;1.260196427E0
2.887447987E0;-8.523358107E-1;1.225831270E0;6.991068721E-1;1.648602152E0
2.897478647E0;-5.363011956E-1;1.551442742E0;3.256114423E-1;1.673504218E0
2.907524977E0;-4.788403213E-2;2.015917778E0;2.011129409E-1;2.026490509E0
2.917479642E0;1.015141487E0;3.557783842E0;1.690306425E0;4.067612803E0
2.927416475E0;1.948880196E0;5.386953831E0;3.715801001E0;6.828219583E0
2.937387391E0;4.012681961E0;6.995857239E0;-2.686294317E0;8.500577168E0
2.947365849E0;5.420472622E0;1.001255131E1;-3.567360640E0;1.193141941E1
2.957600578E0;4.304774761E0;1.409227085E1;-2.394201756E-1;1.473704535E1
2.967494443E0;3.031059265E0;1.984793282E1;2.284068346E0;2.020754130E1
2.977445375E0;2.604891539E0;2.638410187E1;-2.925714493E0;2.667332181E1
2.987558841E0;6.512228489E0;3.169923019E1;-3.150769472E0;3.251426861E1
2.997601574E0;1.021366405E1;3.888183594E1;-1.130063176E0;4.021682660E1
3.007519441E0;1.106599998E1;3.245101166E1;2.331952572E0;3.436513518E1
3.017450874E0;1.695094824E0;3.005201912E1;1.628057212E-1;3.010022766E1
3.027448091E0;-3.634398222E0;3.159867477E1;1.716642570E1;3.614375837E1
3.037724699E0;3.064578176E-1;2.149993134E1;-5.468356609E0;2.218656999E1
3.047579003E0;4.280832767E0;1.191833591E1;-1.659660530E1;2.087629200E1
3.057494655E0;6.224924564E0;8.240841866E0;-1.561498356E1;1.872134803E1
3.067433981E0;4.548983097E0;7.570465565E0;-6.536170483E0;1.098757119E1
3.077428644E0;2.542642117E0;8.480262756E0;5.267243832E-2;8.853398203E0
3.087432476E0;1.666364431E0;9.351752281E0;-1.110909581E0;9.563794291E0
3.097387892E0;1.110909581E0;9.801861763E0;-4.213795185E0;1.072691400E1
3.107401600E0;1.053448796E0;1.081700325E1;-1.829170108E0;1.102103339E1
3.117584954E0;3.734954596E-1;1.247379112E1;2.394201607E-2;1.247940451E1
3.127558131E0;4.788403511E-1;1.344583702E1;5.746083856E-1;1.346662527E1
3.137450719E0;1.048660398E0;1.416409683E1;8.140286058E-2;1.420309664E1
3.147473513E0;1.905784607E0;1.407311726E1;-5.315127969E-1;1.421151470E1
3.157480410E0;2.504334927E0;1.341231823E1;-8.571242094E-1;1.367101443E1
3.167565359E0;2.432508945E0;1.293347740E1;-5.506663918E-1;1.317175656E1
3.177475833E0;2.264914751E0;1.255998230E1;-4.070142806E-1;1.276905066E1
3.187402070E0;2.001552582E0;1.201889229E1;-3.830722570E-1;1.219043596E1
3.197481689E0;1.929726601E0;1.158314800E1;-2.011129409E-1;1.174451399E1
3.207485498E0;1.872265697E0;1.143949604E1;-3.351882398E-1;1.159654257E1
3.217620403E0;2.331952572E0;1.130542088E1;-6.224924326E-1;1.156019207E1
3.227477855E0;2.896984100E0;1.104205799E1;-1.493981838E0;1.151310311E1
3.237455081E0;3.083731890E0;1.040998936E1;-2.049436569E0;1.104886741E1
3.247420194E0;2.619256735E0;9.821015358E0;-1.877054095E0;1.033615889E1
3.257428251E0;2.193088770E0;9.634267807E0;-1.369483352E0;9.975181160E0
3.267411779E0;1.814804912E0;9.361329079E0;-1.053448796E0;9.593630874E0
3.277386543E0;1.671152830E0;9.074024200E0;-1.005564690E0;9.281262162E0
3.287390425E0;1.479616642E0;8.959102631E0;-8.858546019E-1;9.123569681E0
3.297456366E0;1.316810966E0;8.872911453E0;-9.050082564E-1;9.015630245E0
3.307492337E0;1.019929886E0;8.710105896E0;-9.959878922E-1;8.825995330E0
3.317576322E0;7.134721279E-1;8.556877136E0;-8.092401624E-1;8.624619322E0
3.327475815E0;7.517793179E-1;8.619126320E0;-2.489969730E-1;8.655432407E0
3.337408561E0;1.000776291E0;8.537723541E0;2.394201756E-1;8.599511525E0
3.347375434E0;1.130063176E0;8.614337921E0;1.963245422E-1;8.690362704E0
3.357414871E0;1.580173135E0;8.619126320E0;-2.537853718E-1;8.766452684E0
3.367404589E0;1.862688899E0;8.638279915E0;-8.858546019E-1;8.881116382E0
3.377470948E0;1.872265697E0;8.528146744E0;-1.115697980E0;8.802241061E0
3.387685128E0;1.513135433E0;8.465897560E0;-9.097966552E-1;8.648047773E0
3.397540718E0;1.316810966E0;8.494627953E0;5.267243832E-2;8.596247411E0
3.407726513E0;1.149216771E0;8.370129585E0;8.188169599E-1;8.488240670E0
3.417626410E0;1.498770237E0;8.279149055E0;1.010353088E0;8.474162771E0
3.427496859E0;1.470039845E0;8.010998726E0;5.698199868E-1;8.164668551E0
3.437452083E0;1.168370485E0;7.723694801E0;4.740519226E-1;7.825936123E0
3.447402695E0;9.864110947E-1;7.814674377E0;7.374141216E-1;7.911126472E0
3.457401001E0;1.254561663E0;8.111555099E0;5.889736414E-1;8.229103295E0
3.467384654E0;1.656787634E0;8.250418663E0;-7.182604820E-2;8.415432987E0
3.477385981E0;1.589749932E0;8.331821442E0;-4.596867263E-1;8.494578581E0
3.487363144E0;1.647210717E0;8.360552788E0;-6.272808313E-1;8.544333052E0
3.497409726E0;1.613691926E0;8.408436775E0;-6.033388376E-1;8.583112978E0
3.507379017E0;1.364694953E0;8.623914719E0;-6.129156351E-1;8.752711749E0
3.517404162E0;1.177947283E0;8.820239067E0;-5.219359994E-1;8.913842841E0
3.527562235E0;1.120486379E0;8.954314232E0;-5.363011956E-1;9.040069251E0
3.537663271E0;1.254561663E0;9.198522568E0;-3.256114423E-1;9.289389926E0
3.547576289E0;1.230619669E0;9.504981041E0;8.140286058E-2;9.584660442E0
3.557515798E0;1.058237195E0;9.821015358E0;3.926490843E-1;9.885665477E0
3.567489553E0;6.368576288E-1;9.964667320E0;1.101332754E-1;9.985605229E0
3.577423430E0;2.202665508E-1;1.000776291E1;-2.346317619E-1;1.001293603E1
3.587376369E0;1.963245422E-1;1.006522369E1;-3.208230138E-1;1.007224894E1
3.597374838E0;1.867477298E-1;9.921571732E0;-1.244984865E-1;9.924110046E0
3.607502573E0;2.394201607E-2;9.935936928E0;6.129156351E-1;9.954852155E0
3.617447940E0;-1.580173075E-1;9.959878922E0;1.561019540E0;1.008270497E1
3.627487624E0;-1.388636976E-1;9.993397713E0;2.231395960E0;1.024043011E1
3.637471466E0;1.484405100E-1;9.907206535E0;2.264914751E0;1.016388778E1
3.647592387E0;4.884171486E-1;9.782708168E0;1.704671621E0;9.942124308E0
3.657488347E0;9.050082564E-1;9.682151794E0;1.096544385E0;9.785985536E0
3.667430327E0;1.029506683E0;9.500192642E0;5.650315881E-1;9.572502544E0
3.677409317E0;1.110909581E0;9.418789864E0;8.619125932E-2;9.484468964E0
3.687356312E0;1.307234168E0;9.232041359E0;-1.771709323E-1;9.325815694E0
3.697414810E0;1.508347034E0;9.193734169E0;-4.453215301E-1;9.327280955E0
3.707500059E0;1.651999116E0;9.179368973E0;-3.687070608E-1;9.334123457E0
3.717431183E0;1.489193439E0;9.265560150E0;-1.292868853E-1;9.385361852E0
3.727373245E0;1.331176162E0;9.356540680E0;1.197100878E-1;9.451519136E0
3.737340276E0;2.590526342E0;9.102754593E0;-1.771709323E-1;9.465852178E0
3.747380792E0;4.113238335E0;9.074024200E0;5.602431893E-1;9.978502754E0
3.757375550E0;2.547430515E0;9.299078941E0;1.460463047E0;9.751677994E0
3.767479429E0;2.777273953E-1;9.768342972E0;1.335964561E0;9.863187022E0
3.777421868E0;-4.309563041E-1;9.883264542E0;8.906430602E-1;9.932667637E0
3.787352588E0;3.351882473E-2;9.840168953E0;4.357447028E-1;9.849869135E0
3.797315948E0;7.230489254E-1;9.739612579E0;2.729389966E-1;9.770227666E0
3.807294628E0;1.412579060E0;9.701305389E0;4.213795066E-1;9.812658485E0
3.817443968E0;1.264138460E0;9.706093788E0;2.920926213E-1;9.792426705E0
3.827478638E0;1.201889277E0;9.691728592E0;2.394201607E-2;9.765997857E0
3.837462973E0;1.029506683E0;1.000297451E1;-4.261679053E-1;1.006483990E1
3.847495640E0;2.825157940E-1;1.014662647E1;-9.145850539E-1;1.019167846E1
3.857481474E0;-2.202665508E-1;9.864110947E0;-9.576807022E-1;9.912938739E0
3.867481391E0;-9.720458984E-1;9.270348549E0;-3.064578176E-1;9.326207795E0
3.877479349E0;-7.757213712E-1;8.901641846E0;2.585737705E-1;8.939118054E0
3.887438828E0;-8.762778044E-1;8.939949036E0;6.416460276E-1;9.005679384E0
3.897422068E0;-2.873041928E-1;9.026140213E0;2.025494576E0;9.255073156E0
3.907461188E0;3.734954596E-1;9.155426979E0;2.896984100E0;9.610091514E0
3.917424748E0;9.864110947E-1;9.447520256E0;3.136404276E0;1.000328334E1
3.927446028E0;1.484405041E0;9.653421402E0;3.375824451E0;1.033383732E1
3.937563168E0;1.091755986E0;9.255983353E0;3.869029999E0;1.009131072E1
3.947485738E0;1.355118155E0;8.916007042E0;3.591302633E0;9.707161346E0
3.957418523E0;1.168370485E0;9.021351814E0;3.418920040E0;9.717967503E0
3.967449415E0;1.005564690E0;9.112331390E0;3.102885485E0;9.678514454E0
3.977577861E0;8.714894056E-1;9.188945770E0;2.896984100E0;9.674127094E0
3.987524084E0;5.027823448E-1;9.117119789E0;3.083731890E0;9.637637973E0
3.997472196E0;3.447650373E-1;8.791508675E0;2.973598480E0;9.287183407E0
4.007607252E0;-5.746084079E-2;8.494627953E0;2.466027737E0;8.845524213E0
4.017495280E0;-3.734954596E-1;8.341399193E0;1.704671621E0;8.521991826E0
4.027419294E0;-6.129156351E-1;8.408436775E0;1.762132406E0;8.612931278E0
4.037452301E0;-1.244984865E0;8.403648376E0;2.308010340E0;8.803306486E0
4.047398304E0;-1.187524080E0;8.590395927E0;2.968810081E0;9.166185081E0
4.057383306E0;-1.125274777E0;8.853757858E0;3.912125587E0;9.744742077E0
4.067417807E0;-1.082179189E0;9.002198219E0;4.841075897E0;1.027845808E1
4.077417057E0;-9.050082564E-1;8.887276649E0;4.668693542E0;1.007965404E1
4.087532182E0;-9.337386489E-1;8.556877136E0;3.591302633E0;9.326814504E0
4.097435245E0;-1.019929886E0;8.283937454E0;3.011905670E0;8.873299977E0
4.107387276E0;-9.864110947E-1;8.140285492E0;3.390189648E0;8.873028828E0
4.117385792E0;-8.858546019E-1;8.192957878E0;3.998316765E0;9.159466912E0
4.127365050E0;-7.086837292E-1;8.058882713E0;4.410119534E0;9.213955585E0
4.137402179E0;-4.309563041E-1;7.800309181E0;4.592078686E0;9.061883541E0
4.147368743E0;-4.165911078E-1;7.661445618E0;4.841075897E0;9.072337788E0
4.157511025E0;-5.219359994E-1;7.661445618E0;5.444414616E0;9.413384973E0
4.167497166E0;-6.224924326E-1;7.671022415E0;6.224924564E0;9.898574016E0
4.177519737E0;-7.086837292E-1;7.623138428E0;7.115567684E0;1.045207040E1
4.187422522E0;-6.847416759E-1;7.584830761E0;8.250418663E0;1.122799790E1
4.197471415E0;-9.816226959E-1;7.785943985E0;8.116343498E0;1.128979799E1
4.207524361E0;-1.393425345E0;7.752425194E0;7.441178799E0;1.083572206E1
4.217480334E0;-1.527500629E0;7.872135162E0;6.622362137E0;1.039997358E1
4.227406821E0;-1.048660398E0;7.838616371E0;6.086060524E0;9.979164692E0
4.237381064E0;-2.729389966E-1;7.685387611E0;5.947196960E0;9.721565209E0
4.247400186E0;2.633621991E-1;7.522581577E0;5.985504150E0;9.616904552E0
4.257416747E0;4.309563041E-1;7.426813602E0;6.143521786E0;9.648116062E0
4.267378027E0;3.399766386E-1;7.584830761E0;6.210559368E0;9.808990236E0
4.277381167E0;-4.309562966E-2;7.690176010E0;6.090848923E0;9.810153154E0
4.287357737E0;-5.698199868E-1;7.771578789E0;5.918466568E0;9.785212221E0
4.297394022E0;-8.571242094E-1;7.829039574E0;5.755661011E0;9.754801701E0
4.307560665E0;-8.092401624E-1;7.833827972E0;5.789179802E0;9.774371239E0
4.317509986E0;-6.368576288E-1;7.862558365E0;6.177040577E0;1.001904396E1
4.327440647E0;-4.979939461E-1;7.857769966E0;6.263231754E0;1.006084583E1
4.337410477E0;-1.388636976E-1;7.613561630E0;6.531382084E0;1.003217602E1
4.347383392E0;3.591302633E-1;7.383718014E0;7.024587631E0;1.019770061E1
4.357377350E0;8.044517636E-1;7.034164429E0;7.560888767E0;1.035826485E1
4.367454829E0;1.335964561E0;6.818686485E0;8.130708694E0;1.069521905E1
4.377438568E0;1.460463047E0;6.698976517E0;8.226476669E0;1.070906892E1
4.387391938E0;1.173158884E0;6.612784863E0;7.920019150E0;1.038421536E1
4.397382123E0;7.326257229E-1;6.454767704E0;7.431602001E0;9.870637004E0
4.407383215E0;3.782838583E-1;6.301538944E0;7.019799232E0;9.440872471E0
4.420042261E0;2.106897533E-1;6.105214119E0;6.186617374E0;8.694381183E0
4.437352308E0;1.819593310E-1;6.047753334E0;6.062118530E0;8.564911597E0
4.448082308E0;1.053448766E-1;6.052541733E0;5.942408562E0;8.482722351E0
4.457465308E0;1.053448766E-1;6.177040577E0;6.028599739E0;8.631972118E0
4.467527308E0;-1.053448766E-1;6.277596951E0;6.253654957E0;8.861575556E0
4.477452308E0;-1.915361360E-2;6.550535679E0;6.560112476E0;9.270650476E0
4.487352308E0;5.363011956E-1;6.631938934E0;6.852205276E0;9.551070629E0
4.497354308E0;7.996633649E-1;6.493074894E0;7.182605267E0;9.715415662E0
4.507359308E0;7.805097699E-1;6.287173748E0;7.335834026E0;9.692894826E0
4.517359308E0;7.757213712E-1;6.057330132E0;7.560888767E0;9.719055042E0
4.527364308E0;7.278373241E-1;5.827486992E0;7.718906403E0;9.699013757E0
4.537340308E0;6.177040339E-1;5.746084213E0;7.675810814E0;9.608179521E0
4.547403308E0;4.022258818E-1;5.698200226E0;7.517793179E0;9.441847581E0
4.557338308E0;3.208230138E-1;5.765237808E0;7.474697590E0;9.445210344E0
4.567465308E0;2.298433632E-1;5.875370979E0;7.656657219E0;9.653870306E0
4.577433308E0;1.053448766E-1;6.023811340E0;7.809885979E0;9.863656503E0
4.587378308E0;4.884171486E-1;6.071695328E0;7.886500359E0;9.964984866E0
4.597338308E0;8.714894056E-1;6.110002518E0;7.776367188E0;9.927915752E0
4.607410308E0;1.211466074E0;6.100425720E0;7.661445618E0;9.868160567E0
4.617363308E0;1.546654344E0;6.124367714E0;7.623138428E0;9.900114092E0
4.627400308E0;1.580173135E0;6.148310184E0;7.608773232E0;9.909192467E0
4.637325308E0;1.273715258E0;6.114790916E0;7.580042362E0;9.821917365E0
4.647439308E0;8.140285611E-1;6.162675381E0;7.340622425E0;9.619040905E0
4.657677308E0;5.123591423E-1;6.133944988E0;7.201758862E0;9.473812522E0
4.667586308E0;5.267243981E-1;6.014234543E0;7.072471619E0;9.298833826E0
4.677387308E0;5.841852427E-1;6.028599739E0;6.928819656E0;9.202925026E0
4.687382308E0;6.177040339E-1;6.033388138E0;6.737283707E0;9.065005374E0
4.697424308E0;6.272808313E-1;6.081272125E0;6.622362137E0;9.012825982E0
4.707361308E0;7.996633649E-1;6.090848923E0;6.660669327E0;9.061038460E0
4.717362308E0;9.720458984E-1;6.095637321E0;6.660669327E0;9.081089332E0
4.727320308E0;1.034295082E0;5.880159378E0;6.660669327E0;8.944862017E0
4.737346308E0;1.039083481E0;5.750872612E0;6.837840080E0;8.994903404E0
4.747362308E0;1.043871999E0;5.793968201E0;7.158663273E0;9.268559549E0
4.757435308E0;9.911994934E-1;5.784391403E0;7.417236805E0;9.458174357E0
4.767372308E0;8.379706144E-1;5.770026207E0;7.714118004E0;9.669695639E0
4.777404308E0;2.825157940E-1;5.741295815E0;7.776367188E0;9.670272976E0
4.787378308E0;-2.442085743E-1;5.875370979E0;6.737283707E0;8.942629016E0
4.797355308E0;2.394201607E-2;5.889736176E0;6.382941723E0;8.685131575E0
4.807412308E0;6.607996821E-1;5.741295815E0;7.311892033E0;9.320026767E0
4.817403308E0;1.321599364E0;5.635950565E0;8.087613106E0;9.945855891E0
4.827401308E0;1.082179189E0;5.477933407E0;9.165003777E0;1.073201567E1
4.837341308E0;9.337386489E-1;5.008669853E0;1.001255131E1;1.123431463E1
4.847354308E0;5.267243981E-1;4.850652695E0;9.174580574E0;1.039130400E1
4.858088308E0;5.027823448E-1;4.903325081E0;8.293514252E0;9.647681876E0
4.867405308E0;8.236053586E-1;4.979939461E0;7.637503624E0;9.154757475E0
4.877473308E0;1.101332784E0;5.018246651E0;7.398083210E0;9.007073250E0
4.887374308E0;1.369483352E0;5.094861031E0;7.460332394E0;9.137267261E0
4.897409308E0;1.359906554E0;5.090072632E0;7.852981567E0;9.456611694E0
4.907366308E0;1.345541358E0;5.008669853E0;8.418013573E0;9.887376182E0
4.917419308E0;1.177947283E0;4.821922302E0;8.882488251E0;1.017531778E1
4.927368308E0;8.714894056E-1;4.630385876E0;8.868123055E0;1.004209010E1
4.937386308E0;6.607996821E-1;4.563348293E0;8.547300339E0;9.711701547E0
4.947414308E0;4.165911078E-1;4.774038315E0;8.015787125E0;9.339048839E0
4.957368308E0;1.915361285E-1;5.085284233E0;7.508216381E0;9.070287484E0
4.967397308E0;2.633621991E-1;5.334281445E0;7.469909191E0;9.182780706E0
4.977383308E0;4.309563041E-1;5.396530628E0;7.699752808E0;9.412462986E0
4.987373308E0;5.554547906E-1;5.391742229E0;7.924807549E0;9.601145191E0
4.997436308E0;5.698199868E-1;5.339069843E0;8.073247910E0;9.695756464E0
5.007362308E0;5.506663918E-1;5.267243862E0;8.020575523E0;9.611281033E0
5.017627308E0;5.841852427E-1;5.161899090E0;7.948749542E0;9.495740829E0
5.027537308E0;6.272808313E-1;4.999093056E0;7.929595947E0;9.394833927E0
5.037407308E0;6.895300746E-1;4.869806290E0;7.848193169E0;9.261997681E0
5.047375308E0;7.661445141E-1;4.778826714E0;7.886500359E0;9.253164328E0
5.059144308E0;7.326257229E-1;4.812345505E0;7.963114738E0;9.333091987E0
5.067391308E0;7.757213712E-1;4.960785866E0;7.958326340E0;9.409893633E0
5.077424308E0;7.613561153E-1;4.955997467E0;7.752425194E0;9.232641573E0
5.087458308E0;6.751648784E-1;5.166687489E0;7.766790390E0;9.352729023E0
5.098573308E0;6.272808313E-1;5.219359875E0;7.852981567E0;9.450106785E0
5.107614308E0;7.086837292E-1;5.142745018E0;7.862558365E0;9.421777061E0
5.117621308E0;7.278373241E-1;5.109226227E0;7.718906403E0;9.285227830E0
5.127396308E0;6.943184733E-1;5.133168221E0;7.728483200E0;9.303813557E0
5.137363308E0;8.283938169E-1;5.272032261E0;7.905653954E0;9.538339735E0
5.147398308E0;1.173158884E0;5.463568211E0;7.996633530E0;9.755666413E0
5.157464308E0;1.422155857E0;5.511452198E0;7.829039574E0;9.679488275E0
5.167418308E0;1.498770237E0;5.458779812E0;7.560888767E0;9.445190745E0
5.177454308E0;1.010353088E0;5.425261021E0;7.498639584E0;9.310417075E0
5.187380308E0;7.374141216E-1;5.305551052E0;7.565677166E0;9.269958065E0
5.197370308E0;5.602431893E-1;5.166687489E0;7.953537941E0;9.500910368E0
5.207388308E0;5.171475410E-1;5.051765442E0;8.092401505E0;9.553781334E0
5.217372308E0;6.368576288E-1;4.946420670E0;8.145073891E0;9.550648866E0
5.227384308E0;9.672574997E-1;4.730942726E0;8.327033043E0;9.625844661E0
5.237378308E0;1.053448796E0;4.817133904E0;8.508993149E0;9.834505469E0
5.247361308E0;1.168370485E0;4.970362663E0;8.786720276E0;1.016248236E1
5.257356308E0;1.431732655E0;4.927267075E0;9.165003777E0;1.050357622E1
5.269064308E0;1.350329757E0;4.860229492E0;9.107542992E0;1.041117479E1
5.277474308E0;1.077390790E0;4.740519524E0;8.394071579E0;9.700192469E0
5.287387308E0;9.002198577E-1;4.668693542E0;7.991845131E0;9.299284047E0
5.297374308E0;9.528923035E-1;4.639962673E0;7.939172745E0;9.244875403E0
5.307796308E0;8.331822157E-1;4.630385876E0;7.963114738E0;9.249100621E0
5.317366308E0;6.655880809E-1;4.577713490E0;7.829039574E0;9.093532258E0
5.327410308E0;4.932055473E-1;4.606443882E0;7.699752808E0;8.986031952E0
5.337398308E0;5.458779931E-1;4.644751072E0;7.714118004E0;9.021048270E0
5.347525308E0;6.129156351E-1;4.750096321E0;7.838616371E0;9.186021296E0
5.357359308E0;7.613561153E-1;4.879383087E0;8.006210327E0;9.406776613E0
5.367367308E0;1.000776291E0;4.946420670E0;7.996633530E0;9.455938792E0
5.377347308E0;1.130063176E0;4.884171486E0;7.996633530E0;9.438131261E0
5.387526308E0;1.005564690E0;4.845864296E0;8.006210327E0;9.412383594E0
5.397368308E0;9.433154464E-1;4.678270340E0;8.039729118E0;9.349508099E0
5.407426308E0;7.996633649E-1;4.592078686E0;7.920019150E0;9.189850460E0
5.417696308E0;7.374141216E-1;4.592078686E0;7.814674377E0;9.093959636E0
5.429910308E0;8.092401624E-1;4.668693542E0;7.924807549E0;9.233317048E0
5.447465308E0;6.177040339E-1;4.778826714E0;8.470685959E0;9.745320089E0
5.457358308E0;6.177040339E-1;4.745307922E0;8.355764389E0;9.629034431E0
5.467372308E0;5.554547906E-1;4.683058739E0;8.350975990E0;9.590535395E0
5.477356308E0;3.974374831E-1;4.663905144E0;8.327033043E0;9.552457644E0
5.487382308E0;3.303998411E-1;4.630385876E0;8.054094315E0;9.296132133E0
5.497334308E0;2.537853718E-1;4.568136692E0;7.857769966E0;9.092679951E0
5.507404308E0;3.495534360E-1;4.501099110E0;7.920019150E0;9.116401929E0
5.517392308E0;4.118026793E-1;4.520252705E0;8.054094315E0;9.245036570E0
5.527373308E0;4.788403511E-1;4.592078686E0;8.226476669E0;9.433524958E0
5.537548308E0;4.836287498E-1;4.668693542E0;8.374917984E0;9.600512872E0
5.547359308E0;5.746083856E-1;4.716577530E0;8.231265068E0;9.504209752E0
5.557397308E0;5.123591423E-1;4.769249916E0;8.092401505E0;9.407189738E0
5.567540308E0;4.884171486E-1;4.788403511E0;7.996633530E0;9.333461700E0
5.577376308E0;4.979939461E-1;4.769249916E0;7.987056732E0;9.315944288E0
5.587376308E0;5.554547906E-1;4.711789131E0;8.015787125E0;9.314629894E0
5.597342308E0;5.458779931E-1;4.745307922E0;8.015787125E0;9.331064960E0
5.607381308E0;4.309563041E-1;4.707000732E0;8.082824707E0;9.363420020E0
5.617415308E0;3.303998411E-1;4.659116745E0;8.231265068E0;9.464156461E0
5.627367308E0;2.873041928E-1;4.678270340E0;8.413225174E0;9.630738025E0
5.637367308E0;4.261679053E-1;4.769249916E0;8.422801971E0;9.688702539E0
5.647378308E0;4.836287498E-1;4.764461517E0;8.379706383E0;9.651604498E0
5.657370308E0;5.793967843E-1;4.692635536E0;8.408436775E0;9.646674967E0
5.667603308E0;6.368576288E-1;4.611232281E0;8.370129585E0;9.577479839E0
5.677564308E0;6.512228847E-1;4.520252705E0;8.288725853E0;9.463601430E0
5.687387308E0;6.943184733E-1;4.534617901E0;8.374917984E0;9.549036019E0
5.697319308E0;6.081272364E-1;4.501099110E0;8.566453934E0;9.696073686E0
5.707401308E0;5.698199868E-1;4.434061527E0;8.580819130E0;9.675538920E0
5.717552308E0;4.644751251E-1;4.458003521E0;8.422801971E0;9.541128109E0
5.727466308E0;4.213795066E-1;4.510675907E0;8.231265068E0;9.395609743E0
5.737460308E0;4.596867263E-1;4.644751072E0;8.116343498E0;9.362694921E0
5.747379308E0;4.932055473E-1;4.692635536E0;8.202534676E0;9.462856603E0
5.757331308E0;4.836287498E-1;4.692635536E0;8.221688271E0;9.478970570E0
5.767367308E0;4.836287498E-1;4.721365929E0;8.307879448E0;9.567970209E0
5.777345308E0;4.740519226E-1;4.726154327E0;8.360552788E0;9.615617654E0
5.787365308E0;4.357447028E-1;4.687847137E0;8.288725853E0;9.532510713E0
5.797338308E0;4.118026793E-1;4.568136692E0;8.202534676E0;9.397820459E0
5.808141308E0;3.878606856E-1;4.563348293E0;8.087613106E0;9.294303057E0
5.817410308E0;3.208230138E-1;4.529829502E0;8.020575523E0;9.216936283E0
5.827367308E0;2.968810201E-1;4.534617901E0;8.092401505E0;9.281048430E0
5.837383308E0;3.687070608E-1;4.529829502E0;8.231265068E0;9.402607342E0
5.847421308E0;3.399766386E-1;4.496310711E0;8.307879448E0;9.452685071E0
5.857364308E0;3.495534360E-1;4.548983097E0;8.327033043E0;9.494994161E0
5.867361308E0;4.022258818E-1;4.572925091E0;8.441955566E0;9.609372681E0
5.877331308E0;4.692635238E-1;4.587290287E0;8.331821442E0;9.522745873E0
5.887373308E0;4.644751251E-1;4.558559895E0;8.389283180E0;9.559093981E0
5.897396308E0;4.788403511E-1;4.520252705E0;8.403648376E0;9.554228312E0
5.907516308E0;4.261679053E-1;4.481945515E0;8.355764389E0;9.491483193E0
5.917517308E0;3.734954596E-1;4.510675907E0;8.441955566E0;9.578742599E0
5.927408308E0;3.926490843E-1;4.568136692E0;8.638279915E0;9.779669014E0
5.937352308E0;2.777273953E-1;4.582501888E0;8.868123055E0;9.985993319E0
5.947387308E0;5.746083856E-1;4.477157116E0;8.552088737E0;9.670229181E0
5.957348308E0;6.943184733E-1;4.405331135E0;8.537723541E0;9.632328058E0
5.967391308E0;7.326257229E-1;4.462791920E0;8.556877136E0;9.678501872E0
5.977394308E0;7.661445141E-1;4.501099110E0;8.461109161E0;9.614428680E0
5.987462308E0;7.852981687E-1;4.534617901E0;8.370129585E0;9.551885782E0
5.997353308E0;8.236053586E-1;4.443638325E0;8.250418663E0;9.407106647E0
6.007382308E0;8.475474119E-1;4.386177540E0;8.121131897E0;9.268747128E0
6.017372308E0;5.937620401E-1;4.371812344E0;8.192957878E0;9.305367017E0
6.029111308E0;4.309563041E-1;4.376600742E0;8.078036308E0;9.197555544E0
6.037377308E0;5.458779931E-1;4.347870350E0;8.078036308E0;9.190028834E0
6.047489308E0;5.746083856E-1;4.448426723E0;8.288725853E0;9.424523934E0
6.057486308E0;6.703764796E-1;4.424484730E0;8.441955566E0;9.554689086E0
6.067369308E0;6.895300746E-1;4.458003521E0;8.556877136E0;9.673127387E0
6.077344308E0;6.799532771E-1;4.486733913E0;8.595184326E0;9.719583904E0
6.087383308E0;7.326257229E-1;4.491522312E0;8.571242332E0;9.704468468E0
6.097503308E0;6.464344859E-1;4.496310711E0;8.475474358E0;9.616046648E0
6.107437308E0;5.075707436E-1;4.443638325E0;8.398859978E0;9.515482045E0
6.117459308E0;4.405331016E-1;4.367023945E0;8.288725853E0;9.379122764E0
6.127529308E0;4.213795066E-1;4.343081951E0;8.073247910E0;9.176995877E0
6.137367308E0;4.548983276E-1;4.304774761E0;8.020575523E0;9.114145597E0
6.147381308E0;5.458779931E-1;4.304774761E0;8.173804283E0;9.254196075E0
6.157348308E0;5.698199868E-1;4.299986362E0;8.408436775E0;9.461309980E0
6.167478308E0;5.123591423E-1;4.347870350E0;8.480262756E0;9.543654692E0
6.177461308E0;4.932055473E-1;4.429273129E0;8.475474358E0;9.575770347E0
6.187357308E0;5.315127969E-1;4.371812344E0;8.552088737E0;9.619431937E0
6.197313308E0;4.213795066E-1;4.381389141E0;8.470685959E0;9.546028080E0
6.207356308E0;4.357447028E-1;4.443638325E0;8.279149055E0;9.406386346E0
6.217448308E0;5.027823448E-1;4.477157116E0;8.145073891E0;9.308058584E0
6.227398308E0;4.740519226E-1;4.443638325E0;8.183381081E0;9.324074898E0
6.237335308E0;4.884171486E-1;4.419696331E0;8.327033043E0;9.439901814E0
6.247358308E0;5.506663918E-1;4.410119534E0;8.456320763E0;9.553101518E0
6.257498308E0;5.841852427E-1;4.395754337E0;8.346187592E0;9.451072738E0
6.267420308E0;5.937620401E-1;4.395754337E0;8.212111473E0;9.333487258E0
6.277399308E0;4.740519226E-1;4.333505154E0;8.240841866E0;9.322846496E0
6.287385308E0;4.070142806E-1;4.333505154E0;8.307879448E0;9.379007861E0
6.297528308E0;3.878606856E-1;4.280832767E0;8.298302650E0;9.345469061E0
6.307401308E0;3.447650373E-1;4.299986362E0;8.274360657E0;9.331333770E0
6.317408308E0;4.357447028E-1;4.328716755E0;8.384494781E0;9.446026410E0
6.327363308E0;4.740519226E-1;4.400542736E0;8.456320763E0;9.544572407E0
6.337429308E0;5.219359994E-1;4.386177540E0;8.461109161E0;9.544702135E0
6.347375308E0;4.740519226E-1;4.386177540E0;8.532935143E0;9.605949239E0
6.357320308E0;4.836287498E-1;4.357447147E0;8.609549522E0;9.661551914E0
6.367362308E0;4.836287498E-1;4.357447147E0;8.638279915E0;9.687162758E0
6.377570308E0;4.979939461E-1;4.357447147E0;8.576030731E0;9.632426834E0
6.387385308E0;4.070142806E-1;4.386177540E0;8.528146744E0;9.598619740E0
6.397396308E0;3.303998411E-1;4.314351559E0;8.523358345E0;9.558788150E0
6.407392308E0;3.160346150E-1;4.271255970E0;8.475474358E0;9.496166122E0
6.417453308E0;3.112462163E-1;4.261679173E0;8.374917984E0;9.402022911E0
6.427413308E0;2.968810201E-1;4.323928356E0;8.355764389E0;9.412932237E0
6.437347308E0;4.309563041E-1;4.424484730E0;8.374917984E0;9.481615880E0
6.447381308E0;6.560112834E-1;4.496310711E0;8.370129585E0;9.523981840E0
6.457454308E0;8.236053586E-1;4.510675907E0;8.384494781E0;9.556373563E0
6.467453308E0;7.852981687E-1;4.505887508E0;8.413225174E0;9.576119949E0
6.477629308E0;6.368576288E-1;4.486733913E0;8.432378769E0;9.572950462E0
6.487365308E0;4.596867263E-1;4.429273129E0;8.446743965E0;9.548678230E0
6.497319308E0;3.974374831E-1;4.386177540E0;8.394071579E0;9.479290461E0
6.507402308E0;2.873041928E-1;4.328716755E0;8.303091049E0;9.368118990E0
6.517518308E0;2.346317619E-1;4.185064793E0;8.216899872E0;9.224275738E0
6.527386308E0;2.633621991E-1;4.304774761E0;8.370129585E0;9.415918153E0
6.537351308E0;4.501099288E-1;4.333505154E0;8.307879448E0;9.380976857E0
6.547384308E0;6.320692301E-1;4.319139957E0;8.288725853E0;9.367895054E0
6.557437308E0;6.655880809E-1;4.347870350E0;8.259995461E0;9.358125297E0
6.568638308E0;5.698199868E-1;4.333505154E0;8.327033043E0;9.404437305E0
6.577320308E0;5.554547906E-1;4.357447147E0;8.494627953E0;9.563188784E0
6.587511308E0;6.416460276E-1;4.419696331E0;8.609549522E0;9.698957071E0
6.597386308E0;7.517793179E-1;4.319139957E0;8.753201485E0;9.789723099E0
6.607358308E0;8.475474119E-1;4.276044369E0;8.786720276E0;9.808636259E0
6.617515308E0;7.757213712E-1;4.400542736E0;8.494627953E0;9.598188583E0
6.627360308E0;7.038952708E-1;4.419696331E0;8.293514252E0;9.423988691E0
6.637339308E0;6.272808313E-1;4.410119534E0;8.279149055E0;9.401433115E0
6.647359308E0;4.501099288E-1;4.347870350E0;8.279149055E0;9.362205115E0
6.657391308E0;3.830722570E-1;4.323928356E0;8.446743965E0;9.496872348E0
6.667390308E0;4.070142806E-1;4.323928356E0;8.494627953E0;9.540478033E0
6.677395308E0;5.363011956E-1;4.362235546E0;8.394071579E0;9.475080770E0
6.687383308E0;6.943184733E-1;4.304774761E0;8.365341187E0;9.433562267E0
6.697319308E0;7.517793179E-1;4.309563160E0;8.288725853E0;9.372325380E0
6.707620308E0;6.847416759E-1;4.343081951E0;8.192957878E0;9.298160613E0
6.717515308E0;7.086837292E-1;4.347870350E0;8.178592682E0;9.289541833E0
6.727361308E0;8.044517636E-1;4.390965939E0;8.226476669E0;9.359628353E0
6.737345308E0;9.385270476E-1;4.362235546E0;8.221688271E0;9.354468985E0
6.747379308E0;9.097966552E-1;4.367023945E0;8.207323074E0;9.341240824E0
6.757369308E0;6.607996821E-1;4.328716755E0;8.283937454E0;9.370062151E0
6.767384308E0;5.506663918E-1;4.328716755E0;8.346187592E0;9.418060816E0
6.777334308E0;5.171475410E-1;4.347870350E0;8.542511940E0;9.599267076E0
6.787479308E0;5.554547906E-1;4.357447147E0;8.686163902E0;9.733720717E0
6.797532308E0;6.512228847E-1;4.381389141E0;8.662221909E0;9.729067296E0
6.807399308E0;8.475474119E-1;4.376600742E0;8.523358345E0;9.618763338E0
6.817448308E0;7.038952708E-1;4.314351559E0;8.461109161E0;9.523626734E0
6.827369308E0;4.740519226E-1;4.299986362E0;8.384494781E0;9.434742216E0
6.837407308E0;2.777273953E-1;4.204218388E0;8.365341187E0;9.366510445E0
6.847464308E0;1.963245422E-1;4.156333923E0;8.403648376E0;9.377364291E0
6.857351308E0;1.771709323E-1;4.170699596E0;8.518569946E0;9.486419693E0
6.867374308E0;1.675941199E-1;4.261679173E0;8.619126320E0;9.616617684E0
6.877443308E0;3.495534360E-1;4.352658749E0;8.576030731E0;9.623727391E0
6.887409308E0;5.698199868E-1;4.462791920E0;8.418013573E0;9.544849870E0
6.897395308E0;7.230489254E-1;4.453215122E0;8.446743965E0;9.576085228E0
6.907382308E0;7.661445141E-1;4.481945515E0;8.489839554E0;9.630793771E0
6.917351308E0;7.517793179E-1;4.443638325E0;8.489839554E0;9.611892080E0
6.927375308E0;6.799532771E-1;4.314351559E0;8.394071579E0;9.462367754E0
6.937364308E0;5.650315881E-1;4.276044369E0;8.327033043E0;9.377808669E0
6.947377308E0;5.746083856E-1;4.319139957E0;8.240841866E0;9.321835625E0
6.957320308E0;5.698199868E-1;4.309563160E0;8.154650688E0;9.240960843E0
6.967442308E0;5.410895944E-1;4.367023945E0;8.178592682E0;9.287252249E0
6.977468308E0;5.650315881E-1;4.419696331E0;8.336610794E0;9.452621641E0
6.987395308E0;6.751648784E-1;4.405331135E0;8.456320763E0;9.558878117E0
6.997319308E0;7.278373241E-1;4.453215122E0;8.475474358E0;9.601798669E0
7.007465308E0;6.847416759E-1;4.525041103E0;8.528146744E0;9.678540956E0
7.017451308E0;6.272808313E-1;4.501099110E0;8.638279915E0;9.760801930E0
7.027462308E0;5.506663918E-1;4.448426723E0;8.518569946E0;9.625890490E0
7.037346308E0;4.165911078E-1;4.429273129E0;8.427590370E0;9.529758027E0
7.047461308E0;3.016694188E-1;4.362235546E0;8.336610794E0;9.413776231E0
7.057472308E0;3.687070608E-1;4.381389141E0;8.327033043E0;9.416580855E0
7.067573308E0;4.357447028E-1;4.328716755E0;8.374917984E0;9.437526870E0
7.077355308E0;2.729389966E-1;4.376600742E0;8.518569946E0;9.580979265E0
7.087368308E0;2.202665508E-1;4.405331135E0;8.513781548E0;9.588531483E0
7.097401308E0;2.059013397E-1;4.390965939E0;8.614337921E0;9.671080346E0
7.107384308E0;3.112462163E-1;4.405331135E0;8.724471092E0;9.778558813E0
7.117339308E0;3.974374831E-1;4.467580318E0;8.437167168E0;9.555261392E0
7.127496308E0;1.043871999E0;4.429273129E0;6.526593685E0;7.956415922E0
7.137351308E0;1.197100878E0;4.462791920E0;7.671022415E0;8.955118487E0
7.147875308E0;8.619126081E-1;4.525041103E0;8.350975990E0;9.537174127E0
7.157307308E0;6.464344859E-1;4.448426723E0;8.777143478E0;9.861268960E0
7.167518308E0;5.123591423E-1;4.280832767E0;9.069235802E0;1.004186632E1
7.177328308E0;5.267243981E-1;4.256890774E0;9.284713745E0;1.022763252E1
7.187504308E0;3.399766386E-1;4.390965939E0;9.145850182E0;1.015099707E1
7.197509308E0;1.915361285E-1;4.477157116E0;8.609549522E0;9.705975732E0
7.207446308E0;5.746084079E-2;4.448426723E0;8.231265068E0;9.356576654E0
7.217646308E0;7.182604820E-2;4.376600742E0;8.097189903E0;9.204579152E0
7.227424308E0;2.298433632E-1;4.371812344E0;7.967903137E0;9.091372369E0
7.237518308E0;4.453215301E-1;4.472368717E0;7.742848396E0;8.952770214E0
7.247494308E0;7.326257229E-1;4.553771496E0;7.627926826E0;8.913968979E0
7.257344308E0;8.906430602E-1;4.434061527E0;7.747636795E0;8.971065856E0
7.267667308E0;9.720458984E-1;4.419696331E0;7.982268333E0;9.175794060E0
