"Time (s)";"Acceleration x (m/s^2)";"Acceleration y (m/s^2)";"Acceleration z (m/s^2)";"Absolute acceleration (m/s^2)"
0.000000000E0;1.072602391E0;5.884947777E0;6.933608055E0;9.157401754E0
1.377222400E-2;7.661445141E-1;5.798756599E0;7.297526836E0;9.352350156E0
2.950822400E-2;5.123591423E-1;5.712565422E0;7.694964409E0;9.597311751E0
4.262422400E-2;3.208230138E-1;5.645527840E0;7.867346764E0;9.688656104E0
5.398072400E-2;3.208230138E-1;5.635950565E0;7.752425194E0;9.589940697E0
6.473197400E-2;3.399766386E-1;5.631162167E0;7.493851185E0;9.379945471E0
7.494309900E-2;4.836287498E-1;5.525817394E0;7.412448406E0;9.258128646E0
8.525316100E-2;6.272808313E-1;5.276820660E0;7.565677166E0;9.245419866E0
9.546169200E-2;5.698199868E-1;5.286397457E0;7.920019150E0;9.539255538E0
1.055324580E-1;6.560112834E-1;5.319916248E0;8.231265068E0;9.822707586E0
1.156478410E-1;8.667010069E-1;5.501875401E0;8.293514252E0;9.990204312E0
1.254835320E-1;9.337386489E-1;5.688623428E0;7.790732384E0;9.691636366E0
1.353698780E-1;1.197100878E0;5.784391403E0;7.450755596E0;9.508206633E0
1.452905510E-1;1.163581967E0;5.803544998E0;7.460332394E0;9.523214634E0
1.552948870E-1;8.379706144E-1;5.865794182E0;7.709329605E0;9.723348142E0
1.653835550E-1;4.979939461E-1;5.913678169E0;7.723694801E0;9.740382377E0
1.753968890E-1;7.469909191E-1;6.014234543E0;7.939172745E0;9.987966582E0
1.854275560E-1;1.426944256E0;6.555324078E0;9.002198219E0;1.122711078E1
1.954233900E-1;8.092401624E-1;6.110002518E0;7.776367188E0;9.922645164E0
2.054733070E-1;1.249773264E0;6.435614109E0;7.034164429E0;9.615535938E0
2.153597650E-1;2.197877169E0;6.392518520E0;7.254431248E0;9.915731431E0
2.255349940E-1;2.217030764E0;6.344634533E0;7.283161640E0;9.910300512E0
2.354661090E-1;2.140416384E0;6.181828976E0;7.292738438E0;9.796960023E0
2.455181660E-1;1.900996208E0;6.023811340E0;7.278373241E0;9.637157604E0
2.554136950E-1;1.690306425E0;6.454767704E0;6.598419666E0;9.384045184E0
2.654809590E-1;1.599326730E0;6.607996464E0;6.378153324E0;9.322247748E0
2.754610910E-1;1.091755986E0;6.722918510E0;6.047753334E0;9.108506179E0
2.853376570E-1;5.171475410E-1;6.641515732E0;5.736507416E0;8.791171146E0
2.953334400E-1;2.873042040E-2;6.488286495E0;5.741295815E0;8.663784664E0
3.053698320E-1;-2.250549644E-1;6.325480938E0;6.009446144E0;8.727874987E0
3.153050280E-1;-5.075707436E-1;6.330269337E0;6.220136166E0;8.889321226E0
3.257151260E-1;-5.985504389E-1;6.449979305E0;6.421248913E0;9.121016022E0
3.355371750E-1;-4.788403511E-1;6.540958881E0;6.895300865E0;9.516228517E0
3.454701990E-1;1.532289088E-1;6.253654957E0;7.680599213E0;9.905719746E0
3.553512110E-1;8.523358107E-1;6.167463779E0;7.872135162E0;1.003666268E1
3.653087170E-1;1.292868972E0;6.593631268E0;7.043741226E0;9.734565934E0
3.753364700E-1;1.230619669E0;7.450755596E0;6.315904140E0;9.844736098E0
3.853498470E-1;1.604115129E0;7.268796444E0;6.837840080E0;1.010765275E1
3.952390350E-1;1.474828243E0;7.129932880E0;7.455543995E0;1.042094993E1
4.051986290E-1;1.053448796E0;7.163451672E0;7.656657219E0;1.053798814E1
4.151634260E-1;6.416460276E-1;7.129932880E0;7.671022415E0;1.049248481E1
4.252753250E-1;3.256114423E-1;7.053318024E0;7.412448406E0;1.023717292E1
4.353652740E-1;2.298433632E-1;6.876147270E0;7.062894821E0;9.859954995E0
4.453027490E-1;2.298433632E-1;6.579266071E0;6.713341713E0;9.402580867E0
4.553084860E-1;2.873042040E-2;6.512228489E0;5.554547787E0;8.559377690E0
4.653373550E-1;-1.628057212E-1;7.388506413E0;4.683058739E0;8.749146922E0
4.753277890E-1;-3.878606856E-1;7.685387611E0;4.745307922E0;9.040661808E0
4.852390060E-1;-3.160346150E-1;7.580042362E0;5.822698593E0;9.563510809E0
4.951986150E-1;-2.011129409E-1;7.776367188E0;6.607996464E0;1.020676003E1
5.052049190E-1;-2.298433632E-1;7.685387611E0;7.196970463E0;1.053159031E1
5.151960710E-1;-2.873041928E-1;7.594407558E0;7.283161640E0;1.052625353E1
5.252356470E-1;-2.442085743E-1;7.417236805E0;6.952761650E0;1.016936253E1
5.351774350E-1;-1.675941199E-1;7.249642849E0;6.794744492E0;9.937502802E0
5.451698290E-1;-9.097966552E-2;7.354987621E0;6.167463779E0;9.599048374E0
5.551440260E-1;3.543418646E-1;7.570465565E0;5.726930618E0;9.499223196E0
5.651891250E-1;6.847416759E-1;8.063671112E0;5.501875401E0;9.785821166E0
5.751556740E-1;1.082179189E0;8.403648376E0;5.573701382E0;1.014192117E1
5.852184490E-1;1.292868972E0;8.159439087E0;5.870582581E0;1.013467790E1
5.951798360E-1;1.455674648E0;7.987056732E0;5.683835030E0;9.910501731E0
6.051440300E-1;1.412579060E0;7.900865555E0;5.238513470E0;9.584418578E0
6.151266270E-1;1.139639974E0;7.809885979E0;4.908113480E0;9.294228112E0
6.251494250E-1;8.140285611E-1;7.910442352E0;4.477157116E0;9.125934284E0
6.351678240E-1;7.517793179E-1;7.776367188E0;4.218583584E0;8.878823471E0
6.452010240E-1;8.810662031E-1;7.824251175E0;4.323928356E0;8.982847017E0
6.551611240E-1;9.864110947E-1;7.958326340E0;4.687847137E0;9.288911441E0
6.651471740E-1;1.326387763E0;8.231265068E0;5.094861031E0;9.770907739E0
6.751451990E-1;1.570596337E0;8.355764389E0;5.324704647E0;1.003185182E1
6.851887110E-1;1.905784607E0;8.250418663E0;4.994304657E0;9.830793564E0
6.951754670E-1;3.007117271E0;8.638279915E0;4.759673119E0;1.031101946E1
7.051518450E-1;3.136404276E0;7.795520782E0;4.486733913E0;9.525647341E0
7.151800340E-1;2.724601507E0;7.627926826E0;4.074931145E0;9.067181749E0
7.251671290E-1;2.082955360E0;8.331821442E0;3.902548790E0;9.433336559E0
7.351566760E-1;1.532289028E0;8.633491516E0;3.955221176E0;9.619192273E0
7.451589500E-1;1.455674648E0;8.441955566E0;3.969586372E0;9.441568643E0
7.551380870E-1;1.685518026E0;8.413225174E0;4.237737179E0;9.569835173E0
7.651386550E-1;1.886630893E0;8.499416351E0;4.702212334E0;9.894961105E0
7.751299390E-1;1.953668594E0;8.552088737E0;5.042188644E0;1.011823646E1
7.851770810E-1;1.896207690E0;7.814674377E0;4.917690277E0;9.425943820E0
7.951571520E-1;1.805228114E0;7.115567684E0;4.539406300E0;8.631127479E0
8.052641880E-1;8.475474119E-1;1.007480049E1;4.285621166E0;1.098118802E1
8.151997060E-1;8.140286058E-2;8.882488251E0;4.103661537E0;9.784950790E0
8.252264650E-1;7.182604820E-2;8.959102631E0;3.768473387E0;9.719674408E0
8.352603440E-1;5.746084079E-2;9.356540680E0;3.509899616E0;9.993375334E0
8.452047840E-1;-1.915361360E-2;8.580819130E0;3.078943491E0;9.116507929E0
8.551730040E-1;1.580173075E-1;8.360552788E0;1.771709204E0;8.547676052E0
8.651426140E-1;1.197100878E-1;8.513781548E0;-1.216254473E0;8.601051197E0
8.751384190E-1;-4.070142806E-1;8.470685959E0;-6.828263283E0;1.088776197E1
8.852193210E-1;-4.836287498E-1;8.767566681E0;-1.060631371E1;1.376945942E1
8.952007720E-1;-4.261679053E-1;9.198522568E0;-1.358948898E1;1.641550022E1
9.052164980E-1;-1.915361360E-2;9.428366661E0;-1.347456741E1;1.644562044E1
9.151748610E-1;8.619126081E-1;9.150638580E0;-8.365341187E0;1.242803335E1
9.251935420E-1;1.024718285E0;9.002198219E0;-3.371036053E0;9.667135274E0
9.352083830E-1;8.667010069E-1;8.925583839E0;4.788403399E-3;8.967566026E0
9.451923030E-1;8.283938169E-1;8.791508675E0;1.810016513E0;9.014045755E0
9.551802630E-1;6.177040339E-1;8.413225174E0;3.213018656E0;9.027037442E0
9.652777430E-1;6.607996821E-1;8.949525833E0;4.548983097E0;1.006100969E1
9.753154830E-1;-2.633621991E-1;9.069235802E0;6.335057735E0;1.106586437E1
9.853503530E-1;-1.096544385E0;9.792284966E0;8.389283180E0;1.294107131E1
9.952442880E-1;-2.059013397E-1;1.028549004E1;7.043741226E0;1.246787837E1
1.005234256E0;6.368576288E-1;1.058237171E1;4.529829502E0;1.152872647E1
1.015246740E0;1.407790542E0;9.878476143E0;1.795651317E0;1.013856641E1
1.025191482E0;1.944091797E0;9.801861763E0;-3.303998411E-1;9.998257398E0
1.035151853E0;2.370259762E0;9.710882187E0;-2.054224968E0;1.020486180E1
1.045181538E0;1.929726601E0;9.758766174E0;-3.270479441E0;1.047155183E1
1.055189381E0;1.240196466E0;1.025197124E1;-3.509899616E0;1.090689676E1
1.065196802E0;5.027823448E-1;9.730035782E0;-2.427720547E0;1.004092692E1
1.075156513E0;1.867477298E-1;9.572018623E0;-8.236053586E-1;9.609200853E0
1.085134368E0;-9.241618514E-1;9.840168953E0;1.580173135E0;1.000899332E1
1.095118296E0;-8.379706144E-1;1.005564690E1;9.337386489E-1;1.013361224E1
1.105121760E0;8.140286058E-2;9.758766174E0;5.746084079E-2;9.759274841E0
1.115111492E0;2.011129409E-1;9.418789864E0;-1.723825186E-1;9.422513711E0
1.125087358E0;-3.639186621E-1;9.375694275E0;-3.160346150E-1;9.388075298E0
1.135109791E0;-9.289502501E-1;9.385271072E0;-1.436521020E-2;9.431143516E0
1.145104507E0;-1.244984865E0;9.514557838E0;5.889736414E-1;9.613723947E0
1.155081865E0;-1.474828243E0;9.586383820E0;1.015141487E0;9.752147729E0
1.165195544E0;-1.493981838E0;9.624691010E0;1.039083481E0;9.795220939E0
1.175169384E0;-9.864110947E-1;9.773131371E0;7.613561153E-1;9.852246788E0
1.185231804E0;-4.118026793E-1;9.763554573E0;3.495534360E-1;9.778484901E0
1.195191014E0;3.830722719E-2;9.648633003E0;-5.746084079E-2;9.648880143E0
1.205271619E0;4.788403399E-3;9.615114212E0;-1.053448766E-1;9.615692475E0
1.215205421E0;1.053448766E-1;9.576807022E0;2.920926213E-1;9.581839509E0
1.225294322E0;1.436520964E-1;9.380482674E0;4.453215301E-1;9.392145781E0
1.235212273E0;1.963245422E-1;9.232041359E0;4.165911078E-1;9.243520927E0
1.245220248E0;3.016694188E-1;8.935160637E0;4.453215301E-1;8.951335728E0
1.255277736E0;3.064578176E-1;8.647856712E0;4.309563041E-1;8.664009779E0
1.265244980E0;-2.489969730E-1;8.432378769E0;8.571242094E-1;8.479485427E0
1.275196102E0;-9.193734527E-1;8.350975990E0;1.273715258E0;8.497434795E0
1.285246663E0;-9.911994934E-1;8.504204750E0;1.369483352E0;8.670608947E0
1.295256443E0;-2.633621991E-1;8.470685959E0;1.240196466E0;8.565043347E0
1.305312833E0;1.484405100E-1;8.327033043E0;5.027823448E-1;8.343518680E0
1.315299028E0;1.388636976E-1;8.216899872E0;2.106897533E-1;8.220773492E0
1.325293626E0;1.053448766E-1;8.379706383E0;-1.867477298E-1;8.382449005E0
1.335216425E0;8.188169599E-1;8.485051155E0;-1.086967587E0;8.593488980E0
1.345212824E0;8.523358107E-1;8.125920296E0;-1.642422318E0;8.333943128E0
1.355178524E0;7.134721279E-1;7.920019150E0;-1.383848548E0;8.071603472E0
1.365165874E0;8.092401624E-1;7.728483200E0;-9.576807022E-1;7.829525818E0
1.375186049E0;1.675941199E-1;7.489062786E0;-2.633621991E-1;7.495565946E0
1.385233636E0;-6.799532771E-1;7.493851185E0;-4.932055473E-1;7.540782038E0
1.395186930E0;-2.873041928E-1;7.508216381E0;5.123591423E-1;7.531159859E0
1.405188577E0;-3.639186621E-1;7.321468830E0;8.475474119E-1;7.379341382E0
1.415165900E0;-2.346317619E-1;7.551311970E0;7.422025204E-1;7.591325912E0
1.425209062E0;4.884171486E-1;7.479485989E0;-3.447650373E-1;7.503340916E0
1.435161643E0;9.911994934E-1;7.479485989E0;-1.154005170E0;7.632621766E0
1.445149433E0;1.527500629E0;7.685387611E0;-1.431732655E0;7.965444075E0
1.455172328E0;1.546654344E0;7.714118004E0;-9.145850539E-1;7.920620055E0
1.465263276E0;1.264138460E0;7.589619160E0;-7.182605267E-1;7.727629858E0
1.475507750E0;3.830722570E-1;7.752425194E0;-1.675941199E-1;7.763692970E0
1.485308987E0;2.585737705E-1;7.987056732E0;2.346317619E-1;7.994684966E0
1.495231605E0;2.633621991E-1;8.944737434E0;1.101332754E-1;8.949291411E0
1.505250414E0;3.974374831E-1;9.370905876E0;-9.145850539E-1;9.423815539E0
1.515181819E0;7.805097699E-1;9.950302124E0;-1.493981838E0;1.009206072E1
1.525203521E0;1.072602391E0;1.020887566E1;-1.848323703E0;1.043014470E1
1.535196872E0;1.043871999E0;1.047702694E1;-1.403002143E0;1.062196673E1
1.545161048E0;3.734954596E-1;1.065898609E1;-6.607996821E-1;1.068597864E1
1.555200136E0;-3.351882473E-2;1.070687008E1;-4.309562966E-2;1.070700928E1
1.565155680E0;-3.782838583E-1;1.107557678E1;4.548983276E-1;1.109136746E1
1.575148952E0;-1.867477298E-1;1.141076565E1;3.543418646E-1;1.141779337E1
1.585125588E0;4.979939461E-1;1.171243477E1;-1.149216816E-1;1.172358022E1
1.595243406E0;1.441309452E0;1.208592987E1;-5.315127969E-1;1.218316788E1
1.605188815E0;1.991975784E0;1.197100830E1;-1.450886250E0;1.222203249E1
1.615149019E0;2.173935175E0;1.180820274E1;-1.613691926E0;1.211460473E1
1.625195621E0;1.924938202E0;1.201889229E1;-1.063025594E0;1.221839524E1
1.635231922E0;1.747767210E0;1.229183197E1;-9.624691010E-1;1.245271738E1
1.645221073E0;8.188169599E-1;1.228225517E1;-2.049436569E0;1.247896004E1
1.655213148E0;1.015141487E0;1.250252151E1;-1.757344007E0;1.266616810E1
1.665224686E0;1.039083481E0;1.267969227E1;-1.690306425E0;1.283399495E1
1.675236955E0;3.591302633E-1;1.282813263E1;-7.565677166E-1;1.285544072E1
1.685214089E0;1.053448766E-1;1.291911221E1;-2.825157940E-1;1.292263026E1
1.695179656E0;3.543418646E-1;1.314416695E1;-6.129156351E-1;1.316321953E1
1.705239440E0;7.900865674E-1;1.350808620E1;-1.278503656E0;1.359143853E1
1.715173832E0;1.149216771E0;1.389594650E1;-2.370259762E0;1.414341401E1
1.725204028E0;1.244984865E0;1.422634697E1;-2.849100113E0;1.456215324E1
1.735171626E0;1.273715258E0;1.481053162E1;-2.035071373E0;1.500385660E1
1.745212925E0;8.236053586E-1;1.553358078E1;-1.460463047E0;1.562380907E1
1.755220574E0;4.788403213E-2;1.662054825E1;-1.005564690E0;1.665100830E1
1.765214399E0;-3.830722719E-2;1.797566605E1;-9.911994934E-1;1.800301402E1
1.775171811E0;1.197100878E-1;1.947922516E1;-1.503558636E0;1.953753392E1
1.785190017E0;6.655880809E-1;2.091574669E1;-2.111685991E0;2.103261003E1
1.795157120E0;1.187524080E0;2.162921906E1;-3.270479441E0;2.190729025E1
1.805192172E0;1.470039845E0;2.147598839E1;-4.395754337E0;2.197047452E1
1.815175198E0;2.020706177E0;2.070984459E1;-5.410895824E0;2.150020256E1
1.825151711E0;2.949656487E0;1.969470406E1;-5.659893036E0;2.070304882E1
1.835133467E0;3.438073635E0;1.912967110E1;-5.128379822E0;2.010136677E1
1.845311345E0;2.762908697E0;1.962766647E1;-3.639186621E0;2.015248458E1
1.855225784E0;2.202665567E0;2.099714851E1;-2.130839586E0;2.121962438E1
1.865165004E0;4.601655483E0;2.117910767E1;-1.766920805E0;2.174515679E1
1.875209114E0;4.548983097E0;2.339613914E1;-2.853888512E0;2.400452569E1
1.885250669E0;6.042964935E0;2.384146118E1;-4.007893562E0;2.491978947E1
1.895308446E0;6.689399719E0;2.108333969E1;-6.239289761E0;2.298225441E1
1.905312335E0;4.309563160E0;1.744415283E1;-3.064578176E-1;1.797121919E1
1.915240279E0;1.240196466E0;1.396777248E1;2.054224968E0;1.417238850E1
1.925228251E0;4.644751251E-1;9.969455719E0;2.063801765E0;1.019142101E1
1.935208237E0;-8.140286058E-2;7.445967197E0;3.102885485E0;8.067028713E0
1.945184230E0;1.177947283E0;4.448426723E0;3.337517262E0;5.684635572E0
1.955277727E0;-3.351882473E-2;1.474828243E0;3.897760391E0;4.167586583E0
1.965295475E0;3.016694188E-1;-1.254561663E0;6.976703644E0;7.095021010E0
1.975322349E0;-1.053448766E-1;-3.663128614E0;9.576807022E0;1.025401587E1
1.985238286E0;4.884171486E-1;-3.327940464E0;1.115697956E1;1.165297953E1
1.995187255E0;1.187524080E0;-1.163581967E0;6.536170483E0;6.744305822E0
2.005190239E0;4.553771496E0;2.489969730E-1;5.027823448E-1;4.588204923E0
2.015237731E0;3.605667830E0;3.830722570E-1;-7.565677166E-1;3.704049076E0
2.025228977E0;1.024718285E0;1.479616642E0;-3.399766386E-1;1.831637815E0
2.035180100E0;-2.202665508E-1;1.029506683E0;1.398213744E0;1.750257992E0
2.045180662E0;-2.097320795E0;4.836287498E-1;2.537853718E0;3.327664763E0
2.055241443E0;-2.815581083E0;5.267243832E-2;1.273715258E0;3.090731593E0
2.065234333E0;-1.541865945E0;9.576806799E-3;-1.249773264E0;1.984786013E0
2.075230278E0;-1.005564705E-1;-1.484405100E-1;-3.088520288E0;3.093720052E0
2.085181251E0;1.388636976E-1;-5.746083856E-1;-2.226607561E0;2.303744594E0
2.095215737E0;-2.442085743E-1;-1.264138460E0;-1.388636947E0;1.893672739E0
2.105219980E0;-9.385270476E-1;-1.800439715E0;-1.417367458E0;2.476155629E0
2.115175602E0;-1.379060149E0;-2.025494576E0;-1.163581967E0;2.712629382E0
2.125156913E0;-1.307234168E0;-1.699883223E0;-1.503558636E0;2.618998418E0
2.135191068E0;-7.134721279E-1;-9.385270476E-1;-1.623268723E0;2.006209572E0
2.145168146E0;2.729389966E-1;-2.681505978E-1;-1.762132406E0;1.803194681E0
2.155659685E0;3.591302633E-1;1.436521020E-2;-1.589749932E0;1.629872925E0
2.165426454E0;2.873042040E-2;3.878606856E-1;-2.968810201E-1;4.892848746E-1
2.175337339E0;-2.537853718E-1;3.974374831E-1;6.416460276E-1;7.962871295E-1
2.185279281E0;-6.224924326E-2;3.734954596E-1;8.906430602E-1;9.677907249E-1
2.195209252E0;3.495534360E-1;5.793967843E-1;7.086837292E-1;9.798575745E-1
2.205232738E0;6.129156351E-1;7.230489254E-1;2.011129409E-1;9.689745813E-1
2.215177981E0;8.619126081E-1;5.793967843E-1;1.388636976E-1;1.047796309E0
2.225163102E0;7.852981687E-1;4.357447028E-1;2.346317619E-1;9.282341964E-1
2.235153663E0;3.256114423E-1;4.740519226E-1;6.272808313E-1;8.510166144E-1
2.245141443E0;4.070142806E-1;5.410895944E-1;8.092401624E-1;1.055134216E0
2.255144333E0;6.655880809E-1;6.512228847E-1;5.410895944E-1;1.076975714E0
2.265184778E0;6.224924326E-1;6.751648784E-1;-2.154781520E-1;9.432790020E-1
2.275153501E0;1.915361285E-1;8.523358107E-1;-4.261679053E-1;9.719987172E-1
2.285216862E0;-4.405331016E-1;1.244984865E0;2.250549644E-1;1.339666550E0
2.295204043E0;-1.067813993E0;1.819593310E0;8.523358107E-1;2.275439050E0
2.305307633E0;-9.193734527E-1;2.633621931E0;1.197100878E-1;2.792049879E0
2.315217428E0;-2.106897533E-1;4.089296341E0;1.374271750E0;4.319184828E0
2.325171326E0;5.075707436E-1;5.631162167E0;2.365471363E0;6.128871852E0
2.335187275E0;1.005564690E0;8.537723541E0;-2.580949545E0;8.975811059E0
2.345196749E0;2.379836559E0;1.309628296E1;-1.675941199E-1;1.331181194E1
2.355181486E0;3.064578056E0;1.960372353E1;2.183511972E0;1.996159661E1
2.365145855E0;4.170699596E0;2.637931442E1;-5.252878666E0;2.721866453E1
2.375199039E0;5.492298603E0;3.023397827E1;-3.222595453E0;3.089731230E1
2.385264131E0;5.109226227E0;3.743573761E1;2.762908697E0;3.788366808E1
2.395289177E0;8.427590370E0;3.425623703E1;2.528276920E0;3.536815289E1
2.405227700E0;1.292868972E0;3.160825157E1;-2.413355350E0;3.172660337E1
2.415173462E0;-1.015141487E1;3.232172394E1;1.487756920E1;3.700117738E1
2.425207343E0;-1.484405100E-1;2.183033180E1;4.855441093E0;2.236427350E1
2.435170783E0;4.960785866E0;1.429817295E1;-1.674025917E1;2.256730873E1
2.445165003E0;3.960009575E0;1.173158836E1;-1.097023201E1;1.654260656E1
2.455160613E0;2.418143749E0;9.165003777E0;-3.543418407E0;1.011931457E1
2.465277918E0;1.139639974E0;9.624691010E0;-8.954314590E-1;9.733203676E0
2.475257571E0;2.729389966E-1;1.091755962E1;-4.587290287E0;1.184528750E1
2.485247897E0;1.005564705E-1;1.169328117E1;-4.481945515E0;1.252320933E1
2.495197060E0;-8.714894056E-1;1.284249783E1;-1.742978811E0;1.298950420E1
2.505206142E0;-1.958456993E0;1.430774975E1;-3.734954596E-1;1.444599445E1
2.515256683E0;-1.733402014E0;1.564371395E1;3.016694188E-1;1.574234649E1
2.525189453E0;-1.168370485E0;1.610818863E1;2.873041928E-1;1.615306083E1
2.535161838E0;-5.458779931E-1;1.527021885E1;9.576806799E-3;1.527997573E1
2.545220531E0;6.751648784E-1;1.394383049E1;-4.644751251E-1;1.396789152E1
2.555251877E0;1.570596337E0;1.313459015E1;-8.762778044E-1;1.325715256E1
2.565249050E0;1.790862918E0;1.267490387E1;-1.029506683E0;1.284212841E1
2.575210637E0;1.742978811E0;1.209071827E1;-7.852981687E-1;1.224092058E1
2.585174430E0;1.225831270E0;1.125753593E1;-4.932055473E-1;1.133481492E1
2.595211827E0;6.943184733E-1;1.061110210E1;4.309562966E-2;1.063388091E1
2.605161525E0;7.182605267E-1;1.016099167E1;4.070142806E-1;1.019447451E1
2.615160874E0;9.911994934E-1;9.935936928E0;2.394201607E-2;9.985283786E0
2.625143049E0;1.273715258E0;9.600749016E0;-4.548983276E-1;9.695548706E0
2.635172636E0;1.355118155E0;9.155426979E0;-8.140285611E-1;9.290900434E0
2.645176430E0;1.058237195E0;8.858546257E0;-5.075707436E-1;8.935957465E0
2.655140327E0;7.278373241E-1;8.700529099E0;-2.633621991E-1;8.734890578E0
2.665149275E0;6.129156351E-1;8.638279915E0;2.298433632E-1;8.663046429E0
2.675150249E0;4.644751251E-1;8.638279915E0;4.979939461E-1;8.665080207E0
2.685172736E0;1.915361285E-1;8.796297073E0;4.022258818E-1;8.807571399E0
2.695161980E0;1.723825186E-1;8.954314232E0;5.219359994E-1;8.971169170E0
2.705314102E0;2.059013397E-1;8.930372238E0;6.607996821E-1;8.957153560E0
2.715252163E0;9.576806426E-2;8.719682693E0;7.613561153E-1;8.753382257E0
2.725216193E0;1.580173075E-1;8.485051155E0;7.278373241E-1;8.517676311E0
2.735191708E0;3.878606856E-1;8.255207062E0;4.213795066E-1;8.275049259E0
2.745172966E0;5.985504389E-1;7.900865555E0;8.619125932E-2;7.923974260E0
2.755215595E0;9.097966552E-1;7.963114738E0;2.442085743E-1;8.018638545E0
2.765192909E0;9.672574997E-1;8.092401505E0;2.250549644E-1;8.153109770E0
2.775183566E0;1.029506683E0;8.039729118E0;-2.011129409E-1;8.107871158E0
2.785151895E0;7.900865674E-1;8.087613106E0;-3.543418646E-1;8.133835546E0
2.795169059E0;3.782838583E-1;8.403648376E0;1.819593310E-1;8.414125855E0
2.805268141E0;-1.436521020E-2;8.729259491E0;5.027823448E-1;8.743738772E0
2.815206182E0;1.149216816E-1;9.045293808E0;3.495534360E-1;9.052774971E0
2.825174703E0;3.351882398E-1;9.255983353E0;-1.628057212E-1;9.263481240E0
2.835153463E0;4.022258818E-1;9.490615845E0;-3.591302633E-1;9.505921803E0
2.845199843E0;5.075707436E-1;9.725247383E0;2.729389966E-1;9.742307756E0
2.855176533E0;6.368576288E-1;9.835380554E0;2.394201756E-1;9.858885348E0
2.865152878E0;7.565677166E-1;9.773131371E0;-5.267243832E-2;9.802513243E0
2.875145551E0;6.751648784E-1;9.753977776E0;-2.154781520E-1;9.779691247E0
2.885233387E0;5.171475410E-1;9.730035782E0;-2.059013397E-1;9.745944452E0
2.895183805E0;2.968810201E-1;9.816226959E0;-6.224924326E-2;9.820912637E0
2.905209514E0;2.585737705E-1;9.926360130E0;-1.197100878E-1;9.930448949E0
2.915192369E0;3.926490843E-1;9.955090523E0;-3.782838583E-1;9.970009995E0
2.925233796E0;2.250549644E-1;9.859322548E0;-5.027823448E-1;9.874699030E0
2.935182510E0;1.197100878E-1;9.859322548E0;-3.112462163E-1;9.864960508E0
2.945193367E0;7.661445439E-2;9.744400978E0;-1.675941199E-1;9.746143236E0
2.955201795E0;6.703764945E-2;9.686940193E0;-2.250549644E-1;9.689786070E0
2.965282009E0;1.771709323E-1;9.591172218E0;-1.053448766E-1;9.593386868E0
2.975256116E0;3.016694188E-1;9.423578262E0;-2.442085743E-1;9.431567713E0
2.985205670E0;2.250549644E-1;9.370905876E0;-4.692635238E-1;9.385346820E0
2.995303947E0;1.340752989E-1;9.270348549E0;-4.357447028E-1;9.281552233E0
3.005284585E0;3.830722719E-2;9.299078941E0;-4.788403213E-2;9.299281127E0
3.015201904E0;5.746084079E-2;9.342175484E0;-5.267243832E-2;9.342500677E0
3.025204564E0;7.661445439E-2;9.284713745E0;-2.585737705E-1;9.288629581E0
3.035219394E0;2.106897533E-1;9.212887764E0;-4.740519226E-1;9.227481582E0
3.045235809E0;3.064578176E-1;9.255983353E0;-4.740519226E-1;9.273180115E0
3.055281516E0;3.591302633E-1;9.327810287E0;-3.112462163E-1;9.339908646E0
3.065216870E0;3.830722570E-1;9.471462250E0;9.576806799E-3;9.479210580E0
3.075173547E0;4.979939461E-1;9.648633003E0;2.011129409E-1;9.663568865E0
3.085151385E0;5.363011956E-1;9.763554573E0;9.576806426E-2;9.778741657E0
3.095225304E0;4.548983276E-1;9.710882187E0;-1.963245422E-1;9.723513185E0
3.105238764E0;2.298433632E-1;9.749189377E0;-2.106897533E-1;9.754174063E0
3.115177994E0;-9.576806799E-3;9.806650162E0;-1.340752989E-1;9.807571325E0
3.125200609E0;-7.182604820E-2;9.835380554E0;-3.830722719E-2;9.835717415E0
3.135220916E0;-1.580173075E-1;9.873687744E0;-7.182604820E-2;9.875213320E0
3.145238570E0;-1.005564705E-1;9.777919769E0;-1.101332754E-1;9.779057008E0
3.155244897E0;-1.915361360E-2;9.768342972E0;-7.661445439E-2;9.768662193E0
3.165207060E0;1.915361360E-2;9.691728592E0;-1.005564705E-1;9.692269165E0
3.175258142E0;9.576806799E-3;9.629479408E0;-2.011129409E-1;9.631584076E0
3.185253683E0;1.723825186E-1;9.662998199E0;-9.576806426E-2;9.665010163E0
3.195202953E0;1.675941199E-1;9.634267807E0;-2.489969730E-1;9.638942030E0
3.205406588E0;2.346317619E-1;9.595960617E0;-2.825157940E-1;9.602985338E0
3.215336906E0;2.585737705E-1;9.658209801E0;-1.771709323E-1;9.663294805E0
3.225297065E0;1.580173075E-1;9.691728592E0;-7.182604820E-2;9.693282806E0
3.235219644E0;1.963245422E-1;9.715670586E0;-1.053448766E-1;9.718224930E0
3.245191434E0;2.250549644E-1;9.773131371E0;-1.053448766E-1;9.776289893E0
3.255239829E0;2.346317619E-1;9.806650162E0;-2.154781520E-1;9.811822985E0
3.265254026E0;1.867477298E-1;9.797073364E0;-1.723825186E-1;9.800369225E0
3.275197125E0;1.244984865E-1;9.753977776E0;-2.106897533E-1;9.757047324E0
3.285168674E0;1.388636976E-1;9.763554573E0;-9.097966552E-2;9.764965864E0
3.295192949E0;-7.182604820E-2;9.744400978E0;6.703764945E-2;9.744896277E0
3.305221586E0;-2.059013397E-1;9.706093788E0;-2.873042040E-2;9.708320010E0
3.315262905E0;-1.532289088E-1;9.706093788E0;-9.097966552E-2;9.707729550E0
3.325194564E0;3.830722719E-2;9.763554573E0;1.484405100E-1;9.764758058E0
3.335165394E0;1.005564705E-1;9.739612579E0;9.576806799E-3;9.740136370E0
3.345172809E0;1.963245422E-1;9.634267807E0;-4.213795066E-1;9.645476670E0
3.355182516E0;2.681505978E-1;9.533711433E0;-5.027823448E-1;9.550725026E0
3.365173370E0;2.011129409E-1;9.552865028E0;-3.208230138E-1;9.560366315E0
3.375169297E0;7.182604820E-2;9.576807022E0;-2.825157940E-1;9.581242450E0
3.385204260E0;-7.182604820E-2;9.639056206E0;-2.873041928E-1;9.643604472E0
3.395234242E0;-2.394201756E-1;9.691728592E0;-1.675941199E-1;9.696133916E0
3.405186733E0;-2.394201756E-1;9.744400978E0;-2.394201607E-2;9.747371218E0
3.415165978E0;-3.639186621E-1;9.816226959E0;6.703764945E-2;9.823199202E0
3.425166601E0;-4.165911078E-1;9.888052940E0;8.140286058E-2;9.897159468E0
3.435158412E0;-3.591302633E-1;9.907206535E0;2.873042040E-2;9.913755157E0
3.445166818E0;-1.436520964E-1;9.873687744E0;-2.394201756E-1;9.877634718E0
3.455171521E0;-4.788403213E-2;9.911994934E0;-2.346317619E-1;9.914887217E0
3.465210372E0;-1.292868853E-1;9.940725327E0;-4.788403399E-3;9.941567183E0
3.475263798E0;-1.532289088E-1;9.854534149E0;-9.576806426E-2;9.856190639E0
3.485217511E0;-1.388636976E-1;9.801861763E0;-4.309562966E-2;9.802940089E0
3.495181867E0;-5.746084079E-2;9.773131371E0;3.351882473E-2;9.773357767E0
3.505285045E0;3.351882473E-2;9.725247383E0;-2.873042040E-2;9.725347583E0
3.515219134E0;9.097966552E-2;9.715670586E0;2.394201607E-2;9.716126051E0
3.525179679E0;1.149216816E-1;9.749189377E0;-3.830722719E-2;9.749941946E0
3.535255951E0;1.149216816E-1;9.753977776E0;-1.005564705E-1;9.755173040E0
3.545439087E0;1.436521020E-2;9.715670586E0;-1.532289088E-1;9.716889440E0
3.555413155E0;9.576806426E-2;9.730035782E0;-2.489969730E-1;9.733692379E0
3.565335689E0;2.489969730E-1;9.749189377E0;-2.633621991E-1;9.755923977E0
3.575340956E0;2.489969730E-1;9.677363396E0;-4.357447028E-1;9.690368168E0
3.585230590E0;3.447650373E-1;9.710882187E0;-4.165911078E-1;9.725926379E0
3.595254407E0;1.436520964E-1;9.758766174E0;-1.484405100E-1;9.760952195E0
3.605276815E0;7.661445439E-2;9.844957352E0;7.661445439E-2;9.845553555E0
3.615221019E0;4.788403213E-2;9.811438560E0;-7.182604820E-2;9.811818307E0
3.625269621E0;-5.267243832E-2;9.763554573E0;-1.675941199E-1;9.765134924E0
3.635330422E0;-1.340752989E-1;9.763554573E0;-1.675941199E-1;9.765913264E0
3.645294323E0;-5.746084079E-2;9.777919769E0;-2.489969730E-1;9.781258419E0
3.655229273E0;7.182604820E-2;9.801861763E0;-3.112462163E-1;9.807065168E0
3.665246248E0;3.351882473E-2;9.821015358E0;-3.351882398E-1;9.826790795E0
3.675198736E0;1.963245422E-1;9.844957352E0;-2.346317619E-1;9.849709673E0
3.685227480E0;1.675941199E-1;9.830592155E0;-2.250549644E-1;9.834596059E0
3.695196852E0;1.244984865E-1;9.811438560E0;-2.489969730E-1;9.815387205E0
3.705311038E0;1.915361360E-2;9.739612579E0;-2.968810201E-1;9.744155089E0
3.715453631E0;1.388636976E-1;9.706093788E0;-3.064578176E-1;9.711923401E0
3.725417427E0;2.968810201E-1;9.715670586E0;-3.160346150E-1;9.725341698E0
3.735272825E0;2.968810201E-1;9.648633003E0;-5.171475410E-1;9.667041882E0
3.745312524E0;2.968810201E-1;9.543288231E0;-6.895300746E-1;9.572770776E0
3.755376374E0;2.825157940E-1;9.552865028E0;-3.830722570E-1;9.564715875E0
3.765307799E0;2.250549644E-1;9.591172218E0;-4.309562966E-2;9.593909083E0
3.775236511E0;2.633621991E-1;9.686940193E0;7.182604820E-2;9.690785775E0
3.785287367E0;1.292868853E-1;9.753977776E0;-1.915361360E-2;9.754853377E0
3.795300295E0;1.963245422E-1;9.792284966E0;-1.244984865E-1;9.795044055E0
3.805449259E0;3.112462163E-1;9.734824181E0;-3.160346150E-1;9.744924521E0
3.815343741E0;2.346317619E-1;9.686940193E0;-5.267243981E-1;9.704086817E0
3.825243982E0;1.388636976E-1;9.701305389E0;-4.692635238E-1;9.713640802E0
3.835177603E0;2.873042040E-2;9.749189377E0;-3.639186621E-1;9.756021512E0
3.845249413E0;3.351882473E-2;9.773131371E0;-3.208230138E-1;9.778453237E0
3.855206818E0;1.005564705E-1;9.763554573E0;-4.453215301E-1;9.774222259E0
3.865181521E0;8.619125932E-2;9.782708168E0;-4.788403511E-1;9.794799442E0
3.875172872E0;2.154781520E-1;9.806650162E0;-4.836287498E-1;9.820932491E0
3.885176548E0;3.112462163E-1;9.830592155E0;-2.537853718E-1;9.838791763E0
3.895310886E0;3.016694188E-1;9.835380554E0;-2.394201607E-2;9.840034975E0
3.905250055E0;3.495534360E-1;9.868899345E0;1.628057212E-1;9.876429901E0
3.915196139E0;3.782838583E-1;9.864110947E0;3.830722719E-2;9.871436111E0
3.925193681E0;3.303998411E-1;9.720458984E0;-2.489969730E-1;9.729259294E0
3.935212952E0;2.825157940E-1;9.615114212E0;-4.548983276E-1;9.630013965E0
3.945228088E0;1.915361285E-1;9.595960617E0;-4.692635238E-1;9.609336840E0
3.955177156E0;2.489969730E-1;9.643844604E0;-5.650315881E-1;9.663591410E0
3.965152190E0;2.250549644E-1;9.653421402E0;-4.836287498E-1;9.668148285E0
3.975153207E0;1.292868853E-1;9.706093788E0;-3.399766386E-1;9.712906663E0
3.985152215E0;3.351882473E-2;9.710882187E0;-2.011129409E-1;9.713022330E0
3.995160719E0;2.250549644E-1;9.634267807E0;-1.292868853E-1;9.637763279E0
4.005229971E0;3.830722570E-1;9.662998199E0;-4.788403213E-2;9.670706874E0
4.015257597E0;5.123591423E-1;9.710882187E0;1.197100878E-1;9.725125976E0
4.025276910E0;6.991068721E-1;9.653421402E0;4.309562966E-2;9.678799121E0
4.035240567E0;7.326257229E-1;9.658209801E0;-1.819593310E-1;9.687665674E0
4.045235895E0;7.326257229E-1;9.629479408E0;-5.410895944E-1;9.672455328E0
4.055190059E0;6.224924326E-1;9.552865028E0;-7.182605267E-1;9.600032566E0
4.065177641E0;4.788403511E-1;9.586383820E0;-5.219359994E-1;9.612515800E0
4.075198432E0;2.298433632E-1;9.538499832E0;-2.442085743E-1;9.544393372E0
4.085230328E0;-7.661445439E-2;9.557653427E0;-8.619125932E-2;9.558349112E0
4.095195776E0;-7.182604820E-2;9.514557838E0;-2.633621991E-1;9.518473065E0
4.105223000E0;-1.149216816E-1;9.643844604E0;-5.171475410E-1;9.658384302E0
4.115172612E0;1.580173075E-1;9.777919769E0;-4.070142806E-1;9.787662903E0
4.125250918E0;-2.394201607E-2;9.911994934E0;-5.458779931E-1;9.927043849E0
4.135186571E0;1.388636976E-1;9.576807022E0;-3.256114423E-1;9.583346945E0
4.145153897E0;1.197100878E-1;9.457097054E0;-8.092401624E-1;9.492411960E0
4.155176060E0;-1.915361360E-2;9.639056206E0;-9.481038451E-1;9.685590963E0
4.165172642E0;-6.224924326E-2;9.710882187E0;-1.053448796E0;9.768053142E0
4.175304933E0;-2.011129409E-1;9.706093788E0;-7.134721279E-1;9.734359019E0
4.185374078E0;-2.394201756E-1;9.629479408E0;4.740519226E-1;9.644113278E0
4.195321651E0;-4.118026793E-1;9.816226959E0;1.043871999E0;9.880160014E0
4.205400437E0;-6.991068721E-1;9.873687744E0;1.441309452E0;1.000279126E1
4.215310330E0;-7.565677166E-1;9.907206535E0;1.575384736E0;1.006016765E1
4.225272277E0;-6.512228847E-1;1.005085850E1;1.675941229E0;1.021041756E1
4.235235250E0;-6.799532771E-1;9.902418137E0;1.484405041E0;1.003611876E1
4.245280737E0;-5.315127969E-1;9.576807022E0;1.273715258E0;9.675747472E0
4.255265480E0;-4.405331016E-1;9.658209801E0;1.048660398E0;9.724956277E0
4.265252352E0;-3.016694188E-1;9.639056206E0;8.906430602E-1;9.684815643E0
4.275250788E0;-2.250549644E-1;9.567230225E0;8.331822157E-1;9.606078103E0
4.285244006E0;-1.675941199E-1;9.639056206E0;1.039083481E0;9.696349148E0
4.295228615E0;-8.619125932E-2;9.595960617E0;1.321599364E0;9.686924898E0
4.305186419E0;-7.661445439E-2;9.514557838E0;1.790862918E0;9.681935273E0
4.315175321E0;-1.915361360E-2;9.423578262E0;2.624045134E0;9.782116693E0
4.325181772E0;-1.388636976E-1;9.313444138E0;3.213018656E0;9.853071283E0
4.335233498E0;-1.532289088E-1;9.255983353E0;3.332728863E0;9.838891635E0
4.345356861E0;-3.256114423E-1;9.433155060E0;3.327940464E0;1.000827782E1
4.355250042E0;-2.346317619E-1;9.519346237E0;2.978386879E0;9.977163587E0
4.365208133E0;-2.346317619E-1;9.485827446E0;2.245761156E0;9.750867529E0
4.375201678E0;-2.537853718E-1;9.466673851E0;1.604115129E0;9.604972991E0
4.385311951E0;-1.675941199E-1;9.418789864E0;1.244984865E0;9.502193305E0
4.395222087E0;-8.619125932E-2;9.466673851E0;1.029506683E0;9.522879121E0
4.405257155E0;-1.675941199E-1;9.485827446E0;8.427590132E-1;9.524665500E0
4.415296689E0;-3.351882398E-1;9.385271072E0;6.416460276E-1;9.413148989E0
4.425289956E0;-5.985504389E-1;9.265560150E0;8.140285611E-1;9.320488722E0
4.435380090E0;-9.433154464E-1;9.117119789E0;1.455674648E0;9.280663013E0
4.445265657E0;-1.374271750E0;9.093177795E0;2.059013367E0;9.424120187E0
4.455307440E0;-1.130063176E0;9.102754593E0;1.819593310E0;9.351369086E0
4.465435832E0;-5.698199868E-1;9.155426979E0;2.585737944E0;9.530612714E0
4.475309528E0;-6.991068721E-1;9.289502144E0;3.280056238E0;9.876354055E0
4.485247876E0;-5.937620401E-1;9.327810287E0;3.696647406E0;1.005115915E1
4.495258050E0;-2.920926213E-1;9.327810287E0;3.811569214E0;1.008074515E1
4.505503137E0;-2.154781520E-1;9.251194954E0;3.825934410E0;1.001343163E1
4.515582680E0;-3.830722570E-1;9.117119789E0;3.519476414E0;9.780354382E0
4.525494952E0;-4.692635238E-1;9.088389397E0;3.174711466E0;9.638351673E0
4.535426588E0;-5.889736414E-1;8.954314232E0;2.695871115E0;9.369864160E0
4.545417406E0;-5.506663918E-1;8.786720276E0;2.446874142E0;9.137662707E0
4.555334315E0;-4.118026793E-1;8.743624687E0;2.523488522E0;9.109805071E0
4.565391269E0;-3.734954596E-1;8.710105896E0;2.968810081E0;9.209738155E0
4.575271246E0;-5.841852427E-1;8.882488251E0;3.725377798E0;9.649782882E0
4.585442235E0;-2.729389966E-1;8.599972725E0;4.156333923E0;9.555581523E0
4.595358229E0;8.140286058E-2;8.595184326E0;4.807557106E0;9.848676325E0
4.605343226E0;2.154781520E-1;8.513781548E0;5.837063789E0;1.032483514E1
4.615378225E0;3.399766386E-1;8.547300339E0;6.239289761E0;1.058776010E1
4.625343724E0;4.022258818E-1;8.552088737E0;5.851428986E0;1.037011228E1
4.635361474E0;4.357447028E-1;8.647856712E0;5.094861031E0;1.004653712E1
4.645330349E0;1.915361285E-1;8.657433510E0;4.323928356E0;9.679059742E0
4.655307286E0;-4.309562966E-2;8.508993149E0;3.682282209E0;9.271678592E0
4.665321255E0;-1.771709323E-1;8.279149055E0;3.567360640E0;9.016748891E0
4.675260239E0;-3.830722570E-1;8.073247910E0;3.797203779E0;8.929884249E0
4.685346731E0;-3.926490843E-1;7.833827972E0;4.065354347E0;8.834599027E0
4.695253477E0;-4.740519226E-1;7.924807549E0;4.036623955E0;8.906269301E0
4.705257350E0;-5.027823448E-1;7.963114738E0;4.414907932E0;9.118958190E0
4.715212287E0;-2.298433632E-1;7.838616371E0;4.563348293E0;9.073085596E0
4.725248255E0;-2.394201756E-1;7.551311970E0;4.999093056E0;9.059280648E0
4.735276739E0;-3.926490843E-1;9.284713745E0;4.209006786E0;1.020175577E1
4.745290481E0;1.436521020E-2;9.198522568E0;3.983951569E0;1.002421538E1
4.755226352E0;-2.633621991E-1;8.394071579E0;4.012681961E0;9.307599790E0
4.765198788E0;-3.639186621E-1;8.738836288E0;4.209006786E0;9.706463547E0
4.775186006E0;-6.703764796E-1;9.006986618E0;4.510675907E0;1.009561339E1
4.785491115E0;-6.129156351E-1;8.633491516E0;4.496310711E0;9.753443051E0
4.795519669E0;-4.788403511E-1;8.236053467E0;4.352658749E0;9.327781246E0
4.805374946E0;-3.926490843E-1;8.556877136E0;4.007893562E0;9.457141769E0
4.815279085E0;-2.537853718E-1;8.772355080E0;4.199429989E0;9.729020140E0
4.825265654E0;-6.703764945E-2;8.264783859E0;4.965574265E0;9.641995336E0
4.835259939E0;2.873042040E-2;8.010998726E0;5.588066578E0;9.767467128E0
4.845209581E0;2.250549644E-1;7.905653954E0;5.913678169E0;9.875302712E0
4.855363402E0;3.830722570E-1;7.766790390E0;6.023811340E0;9.836466865E0
4.865256313E0;4.788403511E-1;7.694964409E0;6.042964935E0;9.795876201E0
4.875311768E0;5.602431893E-1;7.570465565E0;5.947196960E0;9.643390119E0
4.885260996E0;5.506663918E-1;7.560888767E0;5.980715752E0;9.656046465E0
4.895219610E0;4.213795066E-1;7.584830761E0;6.023811340E0;9.695025602E0
4.905206417E0;3.160346150E-1;7.738059998E0;6.081272125E0;9.846792425E0
4.915258820E0;3.351882398E-1;7.762001991E0;6.057330132E0;9.851511274E0
4.925270522E0;2.968810201E-1;7.714118004E0;6.057330132E0;9.812594114E0
4.935269373E0;1.149216816E-1;7.522581577E0;6.186617374E0;9.740465857E0
4.945272298E0;1.197100878E-1;7.292738438E0;6.488286495E0;9.761978594E0
4.955194261E0;2.154781520E-1;7.225700855E0;6.780379295E0;9.911141563E0
4.965236742E0;3.160346150E-1;7.201758862E0;6.986280441E0;1.003859168E1
4.975295983E0;1.292868853E-1;7.254431248E0;7.048529625E0;1.011559478E1
4.985232603E0;1.340752989E-1;7.412448406E0;7.115567684E0;1.027587811E1
4.995194913E0;3.351882398E-1;7.335834026E0;7.675810814E0;1.062284725E1
5.005209068E0;5.554547906E-1;7.350199223E0;7.517793179E0;1.052858836E1
5.015258146E0;6.655880809E-1;7.302315235E0;7.196970463E0;1.027439532E1
5.025259185E0;9.433154464E-1;7.201758862E0;7.015010834E0;1.009779935E1
5.035199704E0;8.858546019E-1;7.259219646E0;6.670246124E0;9.898140816E0
5.045237964E0;5.698199868E-1;7.225700855E0;6.315904140E0;9.613849010E0
5.055280594E0;3.687070608E-1;7.307103634E0;6.119579315E0;9.538289124E0
5.065265909E0;5.363011956E-1;7.244854450E0;5.616796970E0;9.182806934E0
5.075192066E0;3.016694188E-1;7.259219646E0;5.233725071E0;8.954281235E0
5.085174145E0;6.033388376E-1;6.900089264E0;5.315127850E0;8.730740728E0
5.095274184E0;6.991068721E-1;7.072471619E0;5.458779812E0;8.961410729E0
5.105247704E0;5.554547906E-1;7.235277653E0;5.612008572E0;9.173462429E0
5.115195464E0;3.591302633E-1;7.465120792E0;5.722142220E0;9.412752763E0
5.125204344E0;5.698199868E-1;7.340622425E0;6.062118530E0;9.537227767E0
5.135708284E0;9.193734527E-1;7.287950039E0;6.114790916E0;9.557726260E0
5.145524754E0;1.130063176E0;7.168240070E0;6.014234543E0;9.425058388E0
5.155421989E0;1.058237195E0;7.149086475E0;6.306327343E0;9.591614460E0
5.165526606E0;6.033388376E-1;7.043741226E0;6.828263283E0;9.828707325E0
5.175338915E0;2.394201607E-2;7.043741226E0;6.971915245E0;9.910724790E0
5.185317069E0;-5.746084079E-2;7.101202011E0;7.029376030E0;9.992121853E0
5.195262146E0;2.681505978E-1;7.110779285E0;7.096413612E0;1.004958571E1
5.205201185E0;3.112462163E-1;7.153874874E0;7.139509678E0;1.011174556E1
5.215184204E0;5.746084079E-2;7.254431248E0;6.995857239E0;1.007829812E1
5.225237214E0;-1.292868853E-1;7.359776020E0;6.488286495E0;9.812282090E0
5.235206219E0;-9.576806426E-2;7.359776020E0;6.019022942E0;9.508107685E0
5.245187221E0;6.224924326E-2;7.254431248E0;5.813121796E0;9.296398911E0
5.255172722E0;3.351882398E-1;7.316680431E0;5.937620163E0;9.428759032E0
5.265259973E0;6.464344859E-1;7.292738438E0;6.157886982E0;9.566686132E0
5.275392598E0;5.985504389E-1;7.283161640E0;6.277596951E0;9.633842929E0
5.285298411E0;5.602431893E-1;7.110779285E0;6.517016888E0;9.661706039E0
5.295219817E0;4.022258818E-1;7.105990410E0;6.612784863E0;9.715235921E0
5.305323520E0;2.681505978E-1;7.144298077E0;6.689399719E0;9.790861472E0
5.315261872E0;4.788403213E-2;7.096413612E0;6.742072105E0;9.788611511E0
5.325194048E0;-5.746084079E-2;7.173028469E0;6.751648903E0;9.850908693E0
5.335156136E0;1.675941199E-1;7.249642849E0;6.675034523E0;9.856038510E0
5.345234680E0;2.202665508E-1;7.264008045E0;6.454767704E0;9.719997754E0
5.355379452E0;2.106897533E-1;7.086836815E0;6.560112476E0;9.659333409E0
5.365273838E0;4.213795066E-1;6.895300865E0;6.852205276E0;9.730131133E0
5.375221531E0;5.458779931E-1;6.617573261E0;6.991068840E0;9.641851595E0
5.385178877E0;4.070142806E-1;6.569689274E0;6.847416878E0;9.498083790E0
5.395174050E0;2.106897533E-1;6.517016888E0;6.670246124E0;9.327812318E0
5.405184637E0;2.394201607E-2;6.454767704E0;6.521805286E0;9.175976435E0
5.415143930E0;-2.011129409E-1;6.397306919E0;6.363788128E0;9.025728866E0
5.425226577E0;-3.351882473E-2;6.402095318E0;6.033388138E0;8.797142740E0
5.435264400E0;5.650315881E-1;6.435614109E0;6.392518520E0;9.088491772E0
5.445276312E0;1.187524080E0;6.196194172E0;6.976703644E0;9.406244170E0
5.455195268E0;1.489193439E0;5.966350555E0;7.426813602E0;9.642229843E0
5.465148746E0;1.240196466E0;5.865794182E0;7.627926826E0;9.702107829E0
5.475159985E0;7.038952708E-1;5.817910194E0;7.589619160E0;9.588840731E0
5.485172104E0;4.309562966E-2;5.870582581E0;7.206547260E0;9.295155754E0
5.495328664E0;-4.070142806E-1;6.071695328E0;7.000645638E0;9.275784825E0
5.505360944E0;5.746084079E-2;6.478709698E0;6.517016888E0;9.189585965E0
5.515316584E0;7.326257229E-1;6.780379295E0;6.627150536E0;9.509437841E0
5.525338404E0;1.063025594E0;6.924031258E0;6.766014099E0;9.739156999E0
5.535257314E0;1.101332784E0;6.943184853E0;6.770802498E0;9.760354310E0
5.545240269E0;1.019929886E0;6.833051682E0;6.694188118E0;9.619927589E0
5.555293746E0;8.140285611E-1;6.675034523E0;6.521805286E0;9.367639648E0
5.565253485E0;6.512228847E-1;6.593631268E0;6.435614109E0;9.236730672E0
5.575203854E0;5.506663918E-1;6.622362137E0;6.263231754E0;9.131647483E0
5.585211539E0;7.086837292E-1;6.574477673E0;6.560112476E0;9.314561986E0
5.595197381E0;9.097966552E-1;6.550535679E0;6.924031258E0;9.574938981E0
5.605153302E0;1.182735682E0;6.579266071E0;7.139509678E0;9.780501223E0
5.615129763E0;1.551442742E0;6.689399719E0;7.388506413E0;1.008687614E1
5.625204993E0;1.733402014E0;6.746860504E0;7.335834026E0;1.011628737E1
5.635269608E0;1.426944256E0;6.751648903E0;7.187393665E0;9.963912912E0
5.645323916E0;1.216254473E0;6.756437302E0;7.010222435E0;9.811826463E0
5.655217570E0;8.858546019E-1;6.564900875E0;7.158663273E0;9.753415901E0
5.665183397E0;4.644751251E-1;6.363788128E0;7.345410824E0;9.729778859E0
5.675187810E0;4.884171486E-1;6.215347767E0;7.206547260E0;9.529082988E0
5.685164017E0;4.548983276E-1;6.167463779E0;6.856993675E0;9.233791433E0
5.695138620E0;4.501099288E-1;6.167463779E0;6.794744492E0;9.187424074E0
5.705281922E0;6.320692301E-1;6.167463779E0;6.962338448E0;9.322621822E0
5.715261573E0;6.655880809E-1;5.999869347E0;7.690176010E0;9.776515061E0
5.725263898E0;7.613561153E-1;6.062118530E0;7.292738438E0;9.513830886E0
5.735201561E0;7.182605267E-1;5.990292549E0;7.426813602E0;9.568545516E0
5.745218392E0;5.937620401E-1;5.880159378E0;7.661445618E0;9.676082711E0
5.755198808E0;4.884171486E-1;5.736507416E0;7.948749542E0;9.814717924E0
5.765235016E0;3.303998411E-1;5.578489780E0;7.747636795E0;9.552726741E0
5.775191620E0;2.920926213E-1;5.578489780E0;7.383718014E0;9.258734149E0
5.785258922E0;5.027823448E-1;5.559336185E0;7.177816868E0;9.092857851E0
5.795224073E0;5.650315881E-1;5.631162167E0;6.967126846E0;8.976085145E0
5.805229148E0;4.788403511E-1;5.578489780E0;6.962338448E0;8.934371437E0
5.815179186E0;3.303998411E-1;5.310339451E0;7.637503624E0;9.308078789E0
5.825203205E0;3.447650373E-1;5.161899090E0;8.159439087E0;9.661289322E0
5.835161714E0;7.134721279E-1;5.200206280E0;8.465897560E0;9.961054629E0
5.845143969E0;7.709329724E-1;5.252878666E0;8.149862289E0;9.726629800E0
5.855131596E0;7.565677166E-1;5.415684223E0;7.939172745E0;9.640150112E0
5.865132410E0;4.118026793E-1;5.521028996E0;7.762001991E0;9.534150068E0
5.875238317E0;2.106897533E-1;5.468356609E0;8.154650688E0;9.820674214E0
5.885398270E0;6.368576288E-1;5.334281445E0;7.819462776E0;9.487051401E0
5.895298247E0;1.029506683E0;5.319916248E0;7.417236805E0;9.185684227E0
5.905204235E0;1.201889277E0;5.300762653E0;7.302315235E0;9.103100040E0
5.915186229E0;1.072602391E0;5.439626217E0;7.522581577E0;9.345011656E0
5.925227226E0;4.548983276E-1;5.612008572E0;7.982268333E0;9.768222993E0
5.935198725E0;3.591302633E-1;5.616796970E0;8.197746277E0;9.943863775E0
5.945185974E0;4.932055473E-1;5.655104637E0;7.996633530E0;9.806610422E0
5.955214599E0;4.453215301E-1;5.760449409E0;7.781155586E0;9.691618591E0
5.965280911E0;5.554547906E-1;5.722142220E0;7.508216381E0;9.456466297E0
5.975313067E0;6.464344859E-1;5.770026207E0;7.402871609E0;9.408166029E0
5.985317145E0;8.427590132E-1;5.631162167E0;7.675810814E0;9.557107395E0
5.995234684E0;7.230489254E-1;5.621585369E0;7.680599213E0;9.545502924E0
6.005313454E0;7.565677166E-1;5.573701382E0;7.747636795E0;9.574153629E0
6.015298839E0;8.283938169E-1;5.621585369E0;7.805097580E0;9.654429378E0
6.025279031E0;8.331822157E-1;5.655104637E0;7.560888767E0;9.478472451E0
6.035228127E0;9.050082564E-1;5.607220173E0;7.541735172E0;9.441277849E0
6.045337675E0;8.858546019E-1;5.626373768E0;7.436390400E0;9.367001779E0
6.055302449E0;6.943184733E-1;5.774814606E0;7.105990410E0;9.182900499E0
6.065338836E0;5.554547906E-1;5.741295815E0;6.746860504E0;8.876437028E0
6.075278530E0;3.687070608E-1;5.272032261E0;7.125144482E0;8.871186670E0
6.085329877E0;7.757213712E-1;5.899312973E0;7.024587631E0;9.205893145E0
6.095253550E0;1.015141487E0;5.722142220E0;8.145073891E0;1.000578095E1
6.105200887E0;9.289502501E-1;5.482721806E0;8.250418663E0;9.949502253E0
6.115181055E0;1.029506683E0;5.420472622E0;7.934384346E0;9.664153476E0
6.125264139E0;7.948749661E-1;5.343858242E0;7.900865555E0;9.571432685E0
6.135191681E0;4.836287498E-1;5.214571476E0;7.790732384E0;9.387287336E0
6.145172952E0;3.591302633E-1;5.166687489E0;7.771578789E0;9.339222185E0
6.155189588E0;3.064578176E-1;5.013458252E0;7.896077156E0;9.358243131E0
6.165260906E0;2.202665508E-1;5.013458252E0;8.173804283E0;9.591368904E0
6.175387565E0;4.932055473E-1;5.037400246E0;8.125920296E0;9.573360622E0
6.185509394E0;7.422025204E-1;5.070919037E0;8.001421928E0;9.501991230E0
6.195445809E0;9.768342972E-1;5.118803024E0;7.833827972E0;9.408783681E0
6.205527516E0;1.058237195E0;5.133168221E0;7.771578789E0;9.373724917E0
6.215546870E0;1.034295082E0;5.070919037E0;8.044517517E0;9.565471670E0
6.225599047E0;9.002198577E-1;5.013458252E0;8.058882713E0;9.533664040E0
6.235383635E0;9.289502501E-1;4.865017891E0;8.025363922E0;9.430684690E0
6.245320929E0;9.193734527E-1;4.721365929E0;7.963114738E0;9.303103789E0
6.255293576E0;8.092401624E-1;4.630385876E0;7.958326340E0;9.242851353E0
6.265270400E0;6.033388376E-1;4.496310711E0;8.145073891E0;9.323253533E0
6.275405312E0;7.086837292E-1;4.371812344E0;8.753201485E0;9.809868094E0
6.285363268E0;9.528923035E-1;4.414907932E0;8.643068314E0;9.752027772E0
6.295264246E0;1.048660398E0;4.462791920E0;8.394071579E0;9.564342007E0
6.305201735E0;9.002198577E-1;4.611232281E0;7.685387611E0;9.007721226E0
6.315162979E0;9.768342972E-1;4.764461517E0;7.527369976E0;8.961896984E0
6.325216101E0;1.010353088E0;4.821922302E0;7.632715225E0;9.084607298E0
6.335274662E0;8.858546019E-1;4.831499100E0;7.991845131E0;9.380709489E0
6.345517943E0;9.576807022E-1;4.812345505E0;8.537723541E0;9.847260779E0
6.355323583E0;9.385270476E-1;4.740519524E0;8.734047890E0;9.981831040E0
6.365388403E0;9.193734527E-1;4.797980309E0;8.652645111E0;9.936504919E0
6.375280813E0;7.948749661E-1;4.812345505E0;8.336610794E0;9.658652856E0
6.385212518E0;7.230489254E-1;4.884171486E0;8.049305916E0;9.442947452E0
6.395181371E0;5.219359994E-1;4.874594688E0;8.125920296E0;9.490240841E0
6.405242797E0;7.134721279E-1;4.821922302E0;8.264783859E0;9.595135716E0
6.415490010E0;1.005564690E0;4.788403511E0;8.346187592E0;9.674648099E0
6.425379617E0;1.249773264E0;4.855441093E0;8.303091049E0;9.699410415E0
6.435278420E0;1.321599364E0;4.812345505E0;8.197746277E0;9.597308902E0
6.445263822E0;9.959878922E-1;4.774038315E0;8.111555099E0;9.464711292E0
6.455233523E0;7.613561153E-1;4.683058739E0;8.044517517E0;9.339430623E0
6.465390373E0;7.278373241E-1;4.654327869E0;7.996633530E0;9.281091687E0
6.475324798E0;7.038952708E-1;4.620809078E0;7.953537941E0;9.225297332E0
6.485334511E0;6.129156351E-1;4.625597477E0;8.221688271E0;9.453463683E0
6.495232367E0;4.501099288E-1;4.625597477E0;8.298302650E0;9.511076587E0
6.505288295E0;2.633621991E-1;4.735731125E0;8.346187592E0;9.599758135E0
6.515216259E0;3.112462163E-1;4.836287498E0;8.336610794E0;9.642905709E0
6.525207741E0;2.920926213E-1;4.673481941E0;8.111555099E0;9.366113265E0
6.535180982E0;6.799532771E-1;4.836287498E0;8.212111473E0;9.554621294E0
6.545171103E0;9.145850539E-1;4.836287498E0;8.221688271E0;9.582395348E0
6.555144163E0;1.149216771E0;4.797980309E0;8.188169479E0;9.559677487E0
6.565151193E0;1.221042871E0;4.754884720E0;8.063671112E0;9.440480189E0
6.575185708E0;1.192312479E0;4.793191910E0;7.943961143E0;9.354294008E0
6.585395466E0;1.211466074E0;4.821922302E0;7.886500359E0;9.322846810E0
6.595307845E0;1.249773264E0;4.869806290E0;7.991845131E0;9.441744283E0
6.605265034E0;1.139639974E0;4.797980309E0;8.202534676E0;9.570839536E0
6.615206629E0;1.058237195E0;4.726154327E0;8.298302650E0;9.608237485E0
6.625164926E0;9.672574997E-1;4.711789131E0;8.240841866E0;9.541908538E0
6.635156575E0;7.948749661E-1;4.692635536E0;8.183381081E0;9.466804128E0
6.645140399E0;7.517793179E-1;4.625597477E0;8.092401505E0;9.351378843E0
6.655173311E0;6.991068721E-1;4.635174274E0;8.020575523E0;9.289952782E0
6.665256767E0;7.757213712E-1;4.644751072E0;8.116343498E0;9.383522150E0
6.675326495E0;8.188169599E-1;4.721365929E0;8.202534676E0;9.499649075E0
6.685410359E0;8.475474119E-1;4.788403511E0;8.279149055E0;9.601638083E0
6.695277791E0;8.667010069E-1;4.855441093E0;8.293514252E0;9.649293108E0
6.705380007E0;8.810662031E-1;4.884171486E0;8.255207062E0;9.632229876E0
6.715335115E0;7.709329724E-1;4.855441093E0;8.255207062E0;9.608230300E0
6.725222169E0;6.272808313E-1;4.898536682E0;8.169015884E0;9.545782492E0
6.735158196E0;5.841852427E-1;4.893748283E0;8.087613106E0;9.470983603E0
6.745247210E0;6.560112834E-1;4.874594688E0;7.987056732E0;9.380037283E0
6.755301717E0;7.326257229E-1;4.831499100E0;8.087613106E0;9.449317952E0
6.765232470E0;7.326257229E-1;4.841075897E0;8.092401505E0;9.458314776E0
6.775182847E0;7.182605267E-1;4.874594688E0;8.068459511E0;9.453973262E0
6.785245535E0;7.900865674E-1;4.898536682E0;8.212111473E0;9.594721114E0
6.795198379E0;8.714894056E-1;4.874594688E0;8.331821442E0;9.692286402E0
6.805265801E0;9.768342972E-1;4.865017891E0;8.293514252E0;9.664625340E0
6.815193012E0;8.571242094E-1;4.826710701E0;8.087613106E0;9.457340210E0
6.825207618E0;8.092401624E-1;4.764461517E0;7.982268333E0;9.331214869E0
6.835292421E0;7.948749661E-1;4.692635536E0;8.125920296E0;9.417177663E0
6.845422322E0;6.943184733E-1;4.697423935E0;8.231265068E0;9.502715106E0
6.855507273E0;7.422025204E-1;4.759673119E0;8.298302650E0;9.595164389E0
6.865304248E0;6.991068721E-1;4.769249916E0;8.279149055E0;9.580125483E0
6.875224236E0;6.033388376E-1;4.726154327E0;8.236053467E0;9.514889867E0
6.885178230E0;5.889736414E-1;4.759673119E0;8.303091049E0;9.588675566E0
6.895159727E0;6.847416759E-1;4.884171486E0;8.039729118E0;9.431926980E0
6.905333475E0;7.517793179E-1;4.865017891E0;8.025363922E0;9.414883818E0
6.915230349E0;7.757213712E-1;4.860229492E0;8.006210327E0;9.398030547E0
6.925185786E0;7.900865674E-1;4.831499100E0;8.030152321E0;9.404837406E0
6.935150505E0;7.661445141E-1;4.841075897E0;7.977479935E0;9.362861708E0
6.945152364E0;7.948749661E-1;4.850652695E0;7.982268333E0;9.374287468E0
6.955139294E0;7.326257229E-1;4.850652695E0;8.015787125E0;9.397787784E0
6.965186759E0;6.224924326E-1;4.769249916E0;8.130708694E0;9.446780693E0
6.975258991E0;3.782838583E-1;4.520252705E0;8.188169479E0;9.360657168E0
6.985182607E0;3.064578176E-1;4.750096321E0;8.293514252E0;9.562411312E0
6.995173915E0;5.793967843E-1;4.869806290E0;8.643068314E0;9.937471701E0
7.005306569E0;9.145850539E-1;5.066130638E0;6.823474884E0;8.547628616E0
7.015225896E0;1.446097851E0;5.037400246E0;7.038952827E0;8.775731145E0
7.025189060E0;1.685518026E0;4.893748283E0;7.560888767E0;9.162793364E0
7.035142142E0;1.556231141E0;4.936843872E0;8.226476669E0;9.719526798E0
7.045126183E0;1.158793569E0;4.932055473E0;8.547300339E0;9.936011111E0
7.055151203E0;9.050082564E-1;4.898536682E0;8.480262756E0;9.835118606E0
7.065188213E0;7.852981687E-1;4.860229492E0;8.389283180E0;9.727209066E0
7.075239718E0;7.038952708E-1;4.922478676E0;8.255207062E0;9.637152510E0
7.085282471E0;6.129156351E-1;5.023035049E0;8.279149055E0;9.703136388E0
7.095255847E0;8.619126081E-1;5.056553841E0;8.384494781E0;9.829108954E0
7.105299035E0;1.010353088E0;5.018246651E0;8.403648376E0;9.839965388E0
7.115320629E0;9.385270476E-1;4.941632271E0;8.465897560E0;9.847435403E0
7.125262426E0;5.985504389E-1;4.922478676E0;8.667010307E0;9.985295519E0
7.135265825E0;5.315127969E-1;4.927267075E0;8.097189903E0;9.493416193E0
7.145190024E0;9.289502501E-1;4.941632271E0;7.359776020E0;8.913415795E0
7.155239124E0;1.063025594E0;4.955997467E0;7.206547260E0;8.810576469E0
7.165392174E0;8.188169599E-1;4.922478676E0;7.316680431E0;8.856357607E0
7.175315699E0;6.224924326E-1;4.850652695E0;7.455543995E0;8.916359383E0
